timestamp,acc_x,acc_y,acc_z,gyro_x,gyro_y,gyro_z
1780564493.0387762,0.3136404174804687,-9.889249957275391,1.0905588562011719,-0.30517578125,-0.06103515625,3.7841796875
1780564493.042763,0.2549824768066406,-9.951499200439452,1.1097124694824219,-0.91552734375,-0.18310546875,3.90625
1780564493.046459,0.24301146850585936,-9.888052856445311,1.1647791076660157,-0.06103515625,-0.1220703125,3.72314453125
1780564493.050459,0.22744915771484372,-9.916783276367187,1.1791443176269532,-0.1220703125,0.30517578125,3.72314453125
1780564493.0544589,0.24899697265624998,-9.957484704589843,1.1887211242675781,0.0,1.03759765625,4.150390625
1780564493.0584588,0.22744915771484372,-9.967061511230469,1.1719617126464843,0.91552734375,1.28173828125,4.2724609375
1780564493.0624588,0.2537853759765625,-9.955090502929687,1.1982979309082031,1.52587890625,1.953125,4.45556640625
1780564493.0664587,0.2813186950683594,-9.937133990478515,1.2473790649414063,2.0751953125,2.3193359375,4.45556640625
1780564493.0704587,0.3172317199707031,-9.982623822021484,1.246181964111328,2.9296875,2.685546875,4.21142578125
1780564493.0744586,0.3064578125,-9.958681805419921,1.24498486328125,3.5400390625,2.3193359375,4.0283203125
1780564493.0784585,0.316034619140625,-9.884461553955077,1.2892775939941405,3.5400390625,2.5634765625,3.47900390625
1780564493.0824585,0.3591302490234375,-9.885658654785155,1.3180080139160155,3.41796875,2.38037109375,2.50244140625
1780564493.0864584,0.34715924072265625,-9.885658654785155,1.2964601989746094,3.662109375,2.197265625,1.46484375
1780564493.0904584,0.36750995483398435,-9.849745629882811,1.2318167541503906,4.638671875,1.5869140625,0.244140625
1780564493.0944583,0.3136404174804687,-9.78629928588867,1.189918225097656,4.08935546875,2.13623046875,-1.03759765625
1780564493.0984583,0.31483751831054685,-9.898826763916015,1.2605471740722656,4.2724609375,2.13623046875,-2.3193359375
1780564493.1024582,0.3459621398925781,-9.85094273071289,1.2832920898437499,5.06591796875,1.5869140625,-3.662109375
1780564493.1064582,0.3028665100097656,-9.765948571777344,1.3467384338378905,5.18798828125,1.46484375,-5.06591796875
1780564493.1104581,0.2885013000488281,-9.743203656005859,1.4018050720214843,5.92041015625,1.28173828125,-5.92041015625
1780564493.114458,0.2549824768066406,-9.688137017822266,1.3658920471191405,6.40869140625,0.67138671875,-6.77490234375
1780564493.118458,0.20709844360351562,-9.470264666748045,1.2988544006347655,7.38525390625,0.18310546875,-7.568359375
1780564493.122458,0.15203180541992187,-9.296685046386719,1.1839327209472656,7.080078125,0.732421875,-8.1787109375
1780564493.126458,0.11133037719726561,-9.176974963378905,1.149216796875,7.14111328125,0.8544921875,-8.48388671875
1780564493.1304579,0.0909796630859375,-9.02135185546875,1.064222637939453,6.8359375,1.15966796875,-8.36181640625
1780564493.1344578,0.0718260498046875,-8.83580122680664,1.1049240661621094,5.9814453125,1.708984375,-8.23974609375
1780564493.1384578,0.08738836059570312,-8.675389715576172,1.0797849487304687,5.31005859375,1.77001953125,-7.32421875
1780564493.1424577,-0.1484405029296875,-8.59997236328125,1.054645831298828,3.2958984375,1.708984375,-6.2255859375
1780564493.1464577,-0.08978256225585937,-8.526949212646484,0.9696516723632812,2.0751953125,1.708984375,-5.55419921875
1780564493.1504576,-0.02633621826171875,-8.497021691894531,0.9337386474609375,-0.30517578125,1.28173828125,-4.2724609375
1780564493.1544576,0.009576806640625,-8.54849702758789,0.967257470703125,-2.38037109375,0.244140625,-2.86865234375
1780564493.1584575,0.015562310791015624,-8.559270935058594,0.97683427734375,-4.21142578125,-0.48828125,-1.52587890625
1780564493.1624575,0.07422025146484375,-8.670601312255858,0.6883329772949218,-6.9580078125,-1.40380859375,-0.244140625
1780564493.1664574,0.0909796630859375,-8.711302740478516,0.7769184387207031,-7.99560546875,-2.01416015625,0.67138671875
1780564493.1704574,0.05746083984375,-8.659827404785156,0.967257470703125,-9.33837890625,-2.50244140625,1.40380859375
1780564493.1744573,0.12210428466796874,-8.943540301513671,1.1085153686523437,-11.29150390625,-2.685546875,2.3193359375
1780564493.1784573,0.2537853759765625,-9.141061938476563,1.1516109985351561,-11.474609375,-3.7841796875,2.74658203125
1780564493.1824572,0.32441432495117184,-9.376890802001952,1.2198457458496093,-12.14599609375,-4.21142578125,3.173828125
1780564493.1864572,0.36152445068359373,-9.6151138671875,1.2976572998046874,-12.51220703125,-3.662109375,3.7841796875
1780564493.190457,0.42018239135742186,-9.807847100830077,1.227028350830078,-11.474609375,-3.5400390625,4.08935546875
1780564493.194457,0.4261678955078125,-9.976638317871092,1.1264718811035155,-10.8642578125,-2.685546875,3.72314453125
1780564493.198457,0.41419688720703124,-10.095151300048828,1.1145008728027344,-10.8642578125,-1.03759765625,4.21142578125
1780564493.202457,0.469263525390625,-10.216058483886718,1.2030863342285156,-9.21630859375,-0.1220703125,3.84521484375
1780564493.206457,0.4644751220703125,-10.283096130371094,1.2701239807128906,-7.50732421875,0.3662109375,3.2958984375
1780564493.2104568,0.4608838195800781,-10.383652600097655,1.2976572998046874,-5.79833984375,0.79345703125,3.11279296875
1780564493.2144568,0.5279214660644531,-10.50216558227539,1.2761094848632812,-4.2724609375,0.67138671875,2.3193359375
1780564493.2184567,0.5159504577636719,-10.55962642211914,1.2773065856933592,-3.5400390625,0.1220703125,1.708984375
1780564493.2224567,0.4632780212402344,-10.496180078124999,1.3682862487792968,-2.197265625,0.1220703125,1.15966796875
1780564493.2264566,0.46686932373046874,-10.485406170654297,1.4305354919433593,-1.15966796875,0.244140625,0.54931640625
1780564493.2304566,0.47285482788085936,-10.492588775634765,1.3946224670410154,-0.06103515625,0.244140625,-0.30517578125
1780564493.2344565,0.4860229370117187,-10.488997473144531,1.3072341064453123,0.244140625,0.42724609375,-0.91552734375
1780564493.2384565,0.44412440795898434,-10.430339532470702,1.284489190673828,0.9765625,0.79345703125,-1.5869140625
1780564493.2424564,0.4070142822265625,-10.372878692626953,1.2677297790527342,1.64794921875,1.15966796875,-1.64794921875
1780564493.2464564,0.37708676147460934,-10.374075793457031,1.189918225097656,2.8076171875,2.0751953125,-1.953125
1780564493.2504563,0.31483751831054685,-10.29865844116211,1.1432312927246093,3.2958984375,2.5634765625,-2.0751953125
1780564493.2544563,0.30406361083984373,-10.281899029541014,1.1252747802734375,4.08935546875,2.99072265625,-1.77001953125
1780564493.2584562,0.24899697265624998,-10.187328063964843,1.1276689819335937,4.5166015625,3.84521484375,-1.52587890625
1780564493.2624562,0.201112939453125,-10.151415039062499,1.1456254943847655,5.31005859375,4.0283203125,-1.5869140625
1780564493.2664561,0.17477672119140625,-10.071209283447265,1.1563994018554686,5.615234375,3.84521484375,-1.220703125
1780564493.270456,0.14484920043945312,-9.97184991455078,1.1923124267578125,5.37109375,3.7841796875,-0.91552734375
1780564493.274456,0.10893617553710937,-9.916783276367187,1.2294225524902342,5.37109375,3.41796875,-0.732421875
1780564493.278456,0.055066638183593745,-9.90122096557617,1.2425906616210938,5.2490234375,3.0517578125,-0.42724609375
1780564493.282456,0.0143652099609375,-9.849745629882811,1.2425906616210938,5.0048828125,2.13623046875,-0.30517578125
1780564493.2864559,-0.0143652099609375,-9.75517466430664,1.2665326782226562,4.7607421875,1.708984375,0.0
1780564493.2904558,0.003591302490234375,-9.746794958496093,1.2425906616210938,5.126953125,0.9765625,0.3662109375
1780564493.2944558,-0.03232172241210937,-9.728838446044922,1.2294225524902342,4.94384765625,0.67138671875,0.42724609375
1780564493.2984557,-0.05027823486328125,-9.685742816162108,1.2030863342285156,4.638671875,0.244140625,0.67138671875
1780564493.3024557,-0.011971008300781249,-9.667786303710937,1.1767501159667968,4.57763671875,0.0,0.79345703125
1780564493.3064556,0.0047884033203125,-9.683348614501952,1.2114660400390624,4.57763671875,-0.18310546875,1.28173828125
1780564493.3104556,0.016759411621093748,-9.683348614501952,1.1887211242675781,4.2724609375,-0.30517578125,0.91552734375
1780564493.3144555,0.05386953735351562,-9.625887774658203,1.1982979309082031,3.96728515625,-0.48828125,1.40380859375
1780564493.3184555,0.04668693237304687,-9.600748657226562,1.1911153259277343,4.08935546875,-0.30517578125,1.40380859375
1780564493.3224554,0.1197100830078125,-9.635464581298828,1.2234370483398436,3.662109375,-0.244140625,1.46484375
1780564493.3264554,0.12449848632812499,-9.64623848876953,1.2174515441894531,3.41796875,-0.54931640625,1.220703125
1780564493.3304553,0.13407529296874998,-9.665392102050781,1.2198457458496093,3.41796875,-0.8544921875,0.91552734375
1780564493.3344553,0.14963760375976562,-9.634267480468749,1.2569558715820313,3.11279296875,-0.91552734375,0.42724609375
1780564493.3384552,0.14963760375976562,-9.692925421142577,1.291671795654297,3.47900390625,-1.03759765625,0.30517578125
1780564493.3424551,0.143652099609375,-9.655815295410155,1.3108254089355469,3.2958984375,-1.220703125,0.1220703125
1780564493.346455,0.17118541870117188,-9.662997900390625,1.3335703247070312,3.0517578125,-1.52587890625,-0.48828125
1780564493.350455,0.1867477294921875,-9.682151513671874,1.380257257080078,3.0517578125,-1.8310546875,-0.42724609375
1780564493.354455,0.16160861206054686,-9.712079034423828,1.3730746520996093,3.173828125,-1.708984375,-0.9765625
1780564493.358455,0.18914193115234373,-9.710881933593749,1.4053963745117186,3.5400390625,-1.953125,-1.220703125
1780564493.362455,0.21906945190429686,-9.759963067626952,1.4305354919433593,3.47900390625,-2.25830078125,-1.46484375
1780564493.3664548,0.2454056701660156,-9.767145672607422,1.4185644836425781,4.08935546875,-2.25830078125,-1.708984375
1780564493.3704548,0.2501940734863281,-9.776722479248047,1.3850456604003905,4.21142578125,-2.38037109375,-2.0751953125
1780564493.3744547,0.2597708801269531,-9.770736975097655,1.3766659545898436,4.57763671875,-2.38037109375,-2.50244140625
1780564493.3784547,0.277727392578125,-9.764751470947266,1.3850456604003905,4.82177734375,-2.25830078125,-2.197265625
1780564493.3824546,0.2813186950683594,-9.769539874267577,1.3922282653808593,5.126953125,-2.25830078125,-2.685546875
1780564493.3864546,0.28969840087890625,-9.740809454345703,1.3682862487792968,5.37109375,-2.01416015625,-2.74658203125
1780564493.3904545,0.30885201416015623,-9.726444244384766,1.3934253662109375,5.37109375,-2.01416015625,-2.8076171875
1780564493.3944545,0.29448680419921874,-9.69771382446289,1.3826514587402343,5.31005859375,-2.38037109375,-2.9296875
1780564493.3984544,0.30526071166992186,-9.652223992919922,1.380257257080078,5.2490234375,-2.25830078125,-3.0517578125
1780564493.4024544,0.3124433166503906,-9.64025298461914,1.3395558288574219,5.43212890625,-2.8076171875,-3.0517578125
1780564493.4064543,0.3124433166503906,-9.573215338134766,1.350329736328125,5.0048828125,-2.8076171875,-2.86865234375
1780564493.4104543,0.2825157958984375,-9.555258825683593,1.313219610595703,4.57763671875,-3.23486328125,-3.0517578125
1780564493.4144542,0.29568390502929687,-9.508571893310547,1.2785036865234374,4.0283203125,-3.35693359375,-2.8076171875
1780564493.4184542,0.29568390502929687,-9.488221179199218,1.255758770751953,3.41796875,-3.11279296875,-2.685546875
1780564493.422454,0.29927520751953124,-9.485826977539062,1.2282254516601563,2.99072265625,-3.173828125,-2.25830078125
1780564493.426454,0.30406361083984373,-9.440337145996093,1.2318167541503906,2.38037109375,-3.0517578125,-2.0751953125
1780564493.430454,0.32561142578124996,-9.430760339355468,1.22583125,1.5869140625,-2.86865234375,-1.77001953125
1780564493.434454,0.35194764404296874,-9.449913952636718,1.2509703674316406,1.52587890625,-2.50244140625,-1.0986328125
1780564493.438454,0.39743747558593745,-9.498995086669922,1.254561669921875,1.3427734375,-2.8076171875,-0.54931640625
1780564493.4424539,0.469263525390625,-9.551667523193359,1.2797007873535156,1.15966796875,-2.62451171875,-0.1220703125
1780564493.4464538,0.4896142395019531,-9.578003741455078,1.313219610595703,0.9765625,-2.74658203125,0.1220703125
1780564493.4504538,0.5015852478027344,-9.592368951416015,1.3371616271972655,1.15966796875,-2.38037109375,0.30517578125
1780564493.4544537,0.5686228942871093,-9.622296472167967,1.3180080139160155,0.732421875,-2.25830078125,0.3662109375
1780564493.4584537,0.55545478515625,-9.625887774658203,1.291671795654297,0.67138671875,-1.89208984375,0.54931640625
1780564493.4624536,0.5770026000976562,-9.65940659790039,1.254561669921875,0.6103515625,-1.3427734375,0.54931640625
1780564493.4664536,0.5674257934570313,-9.65342109375,1.2581529724121092,0.67138671875,-0.67138671875,0.6103515625
1780564493.4704535,0.5542576843261718,-9.672574707031249,1.2473790649414063,0.67138671875,0.244140625,0.79345703125
1780564493.4744534,0.5470750793457031,-9.64025298461914,1.1935095275878906,0.8544921875,0.91552734375,0.79345703125
1780564493.4784534,0.5770026000976562,-9.689334118652344,1.254561669921875,1.28173828125,1.64794921875,1.220703125
1780564493.4824533,0.5626373901367188,-9.666589202880859,1.24498486328125,1.46484375,2.01416015625,1.220703125
1780564493.4864533,0.5817910034179687,-9.674968908691406,1.301248602294922,1.64794921875,2.38037109375,0.91552734375
1780564493.4904532,0.5805939025878906,-9.642647186279296,1.2928688964843749,1.64794921875,2.44140625,0.9765625
1780564493.4944532,0.5027823486328125,-9.635464581298828,1.2904746948242187,1.15966796875,2.74658203125,0.9765625
1780564493.4984531,0.5135562561035156,-9.69771382446289,1.4425065002441406,0.244140625,3.173828125,1.46484375
1780564493.502453,0.47764323120117186,-9.694122521972655,1.4832079284667967,0.06103515625,3.47900390625,1.52587890625
1780564493.506453,0.411802685546875,-9.658209497070311,1.2928688964843749,0.42724609375,3.5400390625,1.46484375
1780564493.510453,0.3758896606445312,-9.591171850585937,1.0821791503906248,0.8544921875,4.2724609375,1.708984375
1780564493.514453,0.3172317199707031,-9.585186346435547,1.0726023437499999,0.732421875,4.150390625,1.953125
1780564493.518453,0.258573779296875,-9.55645592651367,1.1635820068359375,0.732421875,4.5166015625,2.01416015625
1780564493.5224528,0.25737667846679685,-9.510966094970703,1.2401964599609374,0.67138671875,4.638671875,2.01416015625
1780564493.5264528,0.277727392578125,-9.522937103271484,1.3156138122558594,0.54931640625,4.08935546875,1.5869140625
1780564493.5304527,0.28371289672851563,-9.55645592651367,1.291671795654297,0.06103515625,3.0517578125,1.03759765625
1780564493.5344527,0.23822306518554687,-9.579200842285156,1.3575123413085937,-0.79345703125,1.89208984375,0.54931640625
1780564493.5384526,0.2549824768066406,-9.545682019042967,1.4257470886230468,-1.46484375,1.03759765625,0.0
1780564493.5424526,0.2214636535644531,-9.554061724853515,1.438915197753906,-1.89208984375,0.1220703125,-0.42724609375
1780564493.5464525,0.2346317626953125,-9.572018237304688,1.3527239379882812,-1.89208984375,-0.30517578125,-0.6103515625
1780564493.5504525,0.23104046020507812,-9.609128363037108,1.303642803955078,-1.89208984375,-0.6103515625,-0.48828125
1780564493.5544524,0.22744915771484372,-9.617508068847656,1.265335577392578,-1.953125,-0.42724609375,-0.30517578125
1780564493.5584524,0.23104046020507812,-9.636661682128906,1.24498486328125,-1.5869140625,-0.06103515625,0.1220703125
1780564493.5624523,0.2645592834472656,-9.682151513671874,1.218648645019531,-1.28173828125,0.732421875,0.6103515625
1780564493.5664523,0.27892449340820313,-9.673771807861328,1.2126631408691406,-0.79345703125,1.220703125,1.3427734375
1780564493.5704522,0.29448680419921874,-9.664195001220703,1.2497732666015624,-0.79345703125,1.89208984375,1.89208984375
1780564493.5744522,0.2932897033691406,-9.672574707031249,1.2533645690917967,-0.54931640625,2.197265625,2.50244140625
1780564493.578452,0.28969840087890625,-9.665392102050781,1.265335577392578,-0.54931640625,2.197265625,2.9296875
1780564493.582452,0.29568390502929687,-9.637858782958984,1.265335577392578,-0.6103515625,2.38037109375,3.60107421875
1780564493.586452,0.28012159423828126,-9.637858782958984,1.2976572998046874,-0.67138671875,2.197265625,4.0283203125
1780564493.590452,0.316034619140625,-9.598354455566406,1.2832920898437499,-0.9765625,2.62451171875,3.84521484375
1780564493.594452,0.29448680419921874,-9.630676177978515,1.2773065856933592,-1.220703125,2.25830078125,4.150390625
1780564493.5984519,0.30406361083984373,-9.641450085449218,1.294065997314453,-1.40380859375,2.197265625,3.7841796875
1780564493.6024518,0.31004911499023435,-9.683348614501952,1.2928688964843749,-1.40380859375,2.197265625,3.5400390625
1780564493.6064517,0.32920272827148434,-9.70968483276367,1.274912384033203,-1.28173828125,2.13623046875,3.2958984375
1780564493.6104517,0.354341845703125,-9.728838446044922,1.2330138549804688,-1.3427734375,2.38037109375,2.86865234375
1780564493.6144516,0.3268085266113281,-9.724050042724608,1.2042834350585936,-1.3427734375,2.5634765625,2.44140625
1780564493.6184516,0.3280056274414062,-9.714473236083984,1.1923124267578125,-1.03759765625,2.99072265625,1.77001953125
1780564493.6224515,0.3112462158203125,-9.720458740234374,1.2006921325683593,-1.03759765625,3.47900390625,1.708984375
1780564493.6264515,0.29568390502929687,-9.726444244384766,1.1743559143066407,-0.79345703125,3.90625,1.28173828125
1780564493.6304514,0.2825157958984375,-9.718064538574218,1.189918225097656,-0.67138671875,4.2724609375,1.3427734375
1780564493.6344514,0.21906945190429686,-9.71686743774414,1.1947066284179686,-0.67138671875,4.33349609375,0.9765625
1780564493.6384513,0.20231004028320312,-9.685742816162108,1.209071838378906,-0.42724609375,4.82177734375,0.91552734375
1780564493.6424513,0.1304839904785156,-9.661800799560547,1.2198457458496093,-0.732421875,5.0048828125,1.28173828125
1780564493.6464512,0.09935936889648436,-9.64025298461914,1.2102689392089843,-0.54931640625,4.69970703125,1.28173828125
1780564493.6504512,0.05386953735351562,-9.604339959716796,1.1959037292480468,-0.732421875,4.82177734375,1.708984375
1780564493.6544511,0.0143652099609375,-9.592368951416015,1.2378022583007813,-0.732421875,4.638671875,1.8310546875
1780564493.658451,-0.010773907470703125,-9.586383447265625,1.2569558715820313,-0.79345703125,4.39453125,1.8310546875
1780564493.662451,-0.023942016601562498,-9.60793126220703,1.2605471740722656,-0.9765625,3.96728515625,2.0751953125
1780564493.666451,-0.029927520751953124,-9.605537060546874,1.2904746948242187,-1.15966796875,3.11279296875,1.5869140625
1780564493.670451,-0.03950432739257812,-9.583989245605467,1.294065997314453,-1.40380859375,2.13623046875,1.953125
1780564493.6744509,-0.0143652099609375,-9.586383447265625,1.2928688964843749,-1.40380859375,2.01416015625,1.64794921875
1780564493.6784508,-0.009576806640625,-9.60793126220703,1.2868833923339842,-1.5869140625,1.220703125,1.40380859375
1780564493.6824508,-0.01915361328125,-9.616310968017578,1.265335577392578,-1.77001953125,0.8544921875,1.3427734375
1780564493.6864507,-0.0143652099609375,-9.628281976318359,1.2282254516601563,-1.77001953125,0.48828125,0.91552734375
1780564493.6904507,-0.013168109130859374,-9.624690673828125,1.2198457458496093,-1.8310546875,0.48828125,1.0986328125
1780564493.6944506,0.027533319091796873,-9.64623848876953,1.1923124267578125,-1.77001953125,0.48828125,0.9765625
1780564493.6984506,0.0047884033203125,-9.65342109375,1.1982979309082031,-1.89208984375,0.48828125,1.03759765625
1780564493.7024505,-0.005985504150390624,-9.661800799560547,1.1935095275878906,-1.52587890625,0.54931640625,0.91552734375
1780564493.7064505,0.005985504150390624,-9.667786303710937,1.1982979309082031,-1.40380859375,0.54931640625,1.03759765625
1780564493.7104504,-0.009576806640625,-9.649829791259766,1.2078747375488281,-1.220703125,0.3662109375,1.3427734375
1780564493.7144504,0.015562310791015624,-9.670180505371093,1.236605157470703,-1.40380859375,0.42724609375,1.03759765625
1780564493.7184503,0.005985504150390624,-9.682151513671874,1.2473790649414063,-1.15966796875,0.30517578125,1.40380859375
1780564493.7224503,0.028730419921875,-9.679757312011718,1.2820949890136717,-0.79345703125,-0.1220703125,1.3427734375
1780564493.7264502,0.03950432739257812,-9.668983404541015,1.3215993164062498,-0.732421875,-0.42724609375,1.708984375
1780564493.7304502,0.0718260498046875,-9.690531219482422,1.3251906188964844,-0.79345703125,-0.8544921875,1.5869140625
1780564493.73445,0.08140285644531249,-9.683348614501952,1.3084312072753905,-0.54931640625,-1.52587890625,1.708984375
1780564493.73845,0.11252747802734374,-9.712079034423828,1.322796417236328,-0.6103515625,-1.8310546875,1.708984375
1780564493.74245,0.1352723937988281,-9.734823950195311,1.3060370056152344,-0.42724609375,-1.953125,1.3427734375
1780564493.74645,0.12569558715820311,-9.739612353515625,1.294065997314453,-0.48828125,-2.197265625,1.0986328125
1780564493.75045,0.16998831787109375,-9.763554370117188,1.291671795654297,-0.48828125,-2.3193359375,1.03759765625
1780564493.7544498,0.19033903198242186,-9.740809454345703,1.2964601989746094,-0.18310546875,-2.5634765625,0.30517578125
1780564493.7584498,0.21188684692382811,-9.764751470947266,1.2785036865234374,-0.18310546875,-2.5634765625,0.30517578125
1780564493.7624497,0.24061726684570311,-9.767145672607422,1.2868833923339842,-0.244140625,-2.62451171875,-0.3662109375
1780564493.7664497,0.2561795776367187,-9.765948571777344,1.2880804931640624,-0.1220703125,-2.5634765625,-0.67138671875
1780564493.7704496,0.27174188842773433,-9.787496386718749,1.2773065856933592,-0.1220703125,-2.74658203125,-1.0986328125
1780564493.7744496,0.2753331909179687,-9.769539874267577,1.2617442749023438,0.1220703125,-2.685546875,-1.220703125
1780564493.7784495,0.29448680419921874,-9.757568865966796,1.2569558715820313,0.1220703125,-2.8076171875,-1.3427734375
1780564493.7824495,0.33518823242187495,-9.753977563476562,1.2713210815429687,0.06103515625,-2.5634765625,-1.64794921875
1780564493.7864494,0.35314474487304687,-9.744400756835937,1.265335577392578,0.18310546875,-2.38037109375,-1.77001953125
1780564493.7904494,0.36631285400390623,-9.767145672607422,1.2701239807128906,0.3662109375,-2.0751953125,-2.01416015625
1780564493.7944493,0.3591302490234375,-9.775525378417969,1.2808978881835937,0.6103515625,-2.13623046875,-1.89208984375
1780564493.7984493,0.36631285400390623,-9.739612353515625,1.2665326782226562,0.67138671875,-1.708984375,-2.01416015625
1780564493.8024492,0.3495534423828125,-9.71686743774414,1.2521674682617188,0.79345703125,-1.3427734375,-1.46484375
1780564493.8064492,0.3172317199707031,-9.707290631103515,1.2485761657714842,1.15966796875,-0.6103515625,-1.46484375
1780564493.8104491,0.33399113159179683,-9.64623848876953,1.2521674682617188,1.46484375,-0.6103515625,-1.0986328125
1780564493.814449,0.3064578125,-9.660603698730467,1.2413935607910156,1.40380859375,-0.30517578125,-0.732421875
1780564493.818449,0.296881005859375,-9.630676177978515,1.2509703674316406,1.5869140625,-0.42724609375,-0.732421875
1780564493.822449,0.2932897033691406,-9.6151138671875,1.2820949890136717,1.52587890625,-0.244140625,-0.54931640625
1780564493.826449,0.3064578125,-9.548076220703125,1.2832920898437499,1.3427734375,-0.6103515625,-0.54931640625
1780564493.8304489,0.3076549133300781,-9.587580548095703,1.2509703674316406,0.9765625,-0.54931640625,-0.6103515625
1780564493.8344488,0.2765302917480469,-9.536105212402344,1.2306196533203124,0.30517578125,-0.48828125,-0.244140625
1780564493.8384488,0.28490999755859375,-9.515754498291015,1.2509703674316406,-0.18310546875,-0.42724609375,-0.18310546875
1780564493.8424487,0.23822306518554687,-9.501389288330078,1.2629413757324217,-0.6103515625,-0.42724609375,0.18310546875
1780564493.8464487,0.21787235107421873,-9.53131680908203,1.2138602416992186,-0.30517578125,0.0,0.54931640625
1780564493.8504486,0.21308394775390624,-9.5384994140625,1.177947216796875,-0.732421875,0.18310546875,0.8544921875
1780564493.8544486,0.201112939453125,-9.560047229003906,1.2174515441894531,-0.91552734375,0.30517578125,1.220703125
1780564493.8584485,0.15442600708007811,-9.549273321533203,1.2234370483398436,-1.0986328125,0.42724609375,1.708984375
1780564493.8624485,0.1580173095703125,-9.539696514892578,1.2425906616210938,-1.03759765625,0.42724609375,1.8310546875
1780564493.8664484,0.15562310791015624,-9.540893615722656,1.2629413757324217,-1.03759765625,0.48828125,2.197265625
1780564493.8704484,0.16998831787109375,-9.567229833984374,1.274912384033203,-1.0986328125,0.18310546875,1.89208984375
1780564493.8744483,0.19512743530273435,-9.599551556396484,1.2904746948242187,-1.40380859375,-0.244140625,2.01416015625
1780564493.8784482,0.20231004028320312,-9.591171850585937,1.3156138122558594,-1.708984375,-0.67138671875,1.64794921875
1780564493.8824482,0.21428104858398436,-9.585186346435547,1.2880804931640624,-1.953125,-1.03759765625,1.46484375
1780564493.8864481,0.1975216369628906,-9.593566052246093,1.2425906616210938,-2.13623046875,-1.03759765625,1.220703125
1780564493.890448,0.1927332336425781,-9.575609539794922,1.2425906616210938,-2.5634765625,-1.15966796875,1.220703125
1780564493.894448,0.24181436767578124,-9.59476315307617,1.2198457458496093,-2.50244140625,-0.91552734375,0.9765625
1780564493.898448,0.21428104858398436,-9.630676177978515,1.2042834350585936,-2.62451171875,-1.03759765625,1.220703125
1780564493.902448,0.24061726684570311,-9.641450085449218,1.1815385192871093,-2.62451171875,-0.54931640625,1.28173828125
1780564493.906448,0.24899697265624998,-9.643844287109374,1.2126631408691406,-2.50244140625,-0.42724609375,1.220703125
1780564493.9104478,0.25258827514648435,-9.662997900390625,1.2389993591308592,-2.5634765625,-0.18310546875,1.220703125
1780564493.9144478,0.24301146850585936,-9.702502227783203,1.2294225524902342,-2.685546875,-0.1220703125,1.15966796875
1780564493.9184477,0.26815058593749996,-9.689334118652344,1.2533645690917967,-2.8076171875,0.18310546875,1.40380859375
1780564493.9224477,0.25258827514648435,-9.67856021118164,1.2892775939941405,-2.86865234375,0.18310546875,1.52587890625
1780564493.9264476,0.2154781494140625,-9.674968908691406,1.2713210815429687,-2.685546875,0.42724609375,1.89208984375
1780564493.9304476,0.23702596435546874,-9.688137017822266,1.2581529724121092,-2.99072265625,0.8544921875,2.38037109375
1780564493.9344475,0.19871873779296872,-9.721655841064452,1.2689268798828124,-2.62451171875,0.79345703125,2.9296875
1780564493.9384475,0.1975216369628906,-9.74799205932617,1.2832920898437499,-2.62451171875,1.15966796875,3.2958984375
1780564493.9424474,0.17477672119140625,-9.756371765136718,1.2856862915039062,-2.197265625,0.9765625,3.41796875
1780564493.9464474,0.17357962036132812,-9.782707983398437,1.2569558715820313,-1.89208984375,0.9765625,3.60107421875
1780564493.9504473,0.18435352783203124,-9.788693487548828,1.265335577392578,-1.28173828125,0.732421875,3.662109375
1780564493.9544473,0.18914193115234373,-9.776722479248047,1.3192051147460937,-0.9765625,0.91552734375,3.60107421875
1780564493.9584472,0.20231004028320312,-9.827000714111328,1.3527239379882812,-0.8544921875,0.6103515625,3.2958984375
1780564493.9624472,0.21906945190429686,-9.82580361328125,1.1947066284179686,-1.220703125,0.30517578125,3.23486328125
1780564493.966447,0.23702596435546874,-9.765948571777344,1.1719617126464843,-0.91552734375,0.3662109375,2.685546875
1780564493.970447,0.2059013427734375,-9.728838446044922,1.1923124267578125,-1.0986328125,0.732421875,2.5634765625
1780564493.974447,0.22385785522460935,-9.683348614501952,1.1863269226074218,-1.40380859375,0.9765625,2.01416015625
1780564493.978447,0.25139117431640623,-9.712079034423828,1.149216796875,-1.28173828125,1.0986328125,1.64794921875
1780564493.982447,0.26815058593749996,-9.725247143554688,1.0749965454101562,-1.3427734375,1.0986328125,1.708984375
1780564493.9864469,0.20231004028320312,-9.64623848876953,1.0749965454101562,-1.89208984375,1.64794921875,1.8310546875
1780564493.9904468,0.16879121704101563,-9.591171850585937,1.073799444580078,-1.77001953125,2.0751953125,1.953125
1780564493.9944468,0.1292868896484375,-9.593566052246093,1.052251629638672,-2.01416015625,2.50244140625,2.5634765625
1780564493.9984467,0.105344873046875,-9.550470422363281,1.0462661254882812,-2.50244140625,3.173828125,3.173828125
1780564494.0024467,0.09816226806640624,-9.5384994140625,1.1085153686523437,-2.86865234375,2.99072265625,3.662109375
1780564494.0064466,0.1005564697265625,-9.483432775878907,1.139639990234375,-3.41796875,2.99072265625,4.638671875
1780564494.0104465,0.06584054565429687,-9.473855969238281,1.1384428894042968,-3.662109375,2.99072265625,5.55419921875
1780564494.0144465,0.0143652099609375,-9.484629876708984,1.1049240661621094,-3.84521484375,2.9296875,6.53076171875
1780564494.0184464,-0.02154781494140625,-9.46787046508789,1.1180921752929687,-4.39453125,2.86865234375,7.26318359375
1780564494.0224464,-0.06703764648437499,-9.457096557617186,1.1288660827636718,-4.5166015625,2.8076171875,8.30078125
1780564494.0264463,-0.08259995727539061,-9.452308154296874,1.102529864501953,-4.638671875,2.99072265625,8.97216796875
1780564494.0304463,-0.10175357055664062,-9.479841473388671,1.0989385620117187,-4.638671875,2.685546875,9.70458984375
1780564494.0344462,-0.06464344482421874,-9.490615380859374,1.1264718811035155,-4.57763671875,2.5634765625,10.498046875
1780564494.0384462,-0.05626373901367187,-9.520542901611327,1.139639990234375,-4.82177734375,2.25830078125,10.80322265625
1780564494.0424461,-0.06105214233398437,-9.530119708251952,1.197100830078125,-4.638671875,1.5869140625,10.3759765625
1780564494.046446,-0.051475335693359374,-9.562441430664062,1.2318167541503906,-4.8828125,0.91552734375,10.31494140625
1780564494.050446,-0.001197100830078125,-9.555258825683593,1.2761094848632812,-5.0048828125,-0.06103515625,10.07080078125
1780564494.054446,0.02633621826171875,-9.611522564697266,1.2820949890136717,-4.8828125,-0.91552734375,9.27734375
1780564494.058446,0.06823474731445311,-9.64025298461914,1.2413935607910156,-5.18798828125,-1.40380859375,8.85009765625
1780564494.0624459,0.058657940673828124,-9.637858782958984,1.2521674682617188,-5.67626953125,-1.953125,8.11767578125
1780564494.0664458,0.10295067138671875,-9.65940659790039,1.20667763671875,-5.67626953125,-2.3193359375,7.50732421875
1780564494.0704458,0.11133037719726561,-9.695319622802733,1.1875240234375,-5.55419921875,-2.13623046875,6.9580078125
1780564494.0744457,0.10295067138671875,-9.668983404541015,1.1360486877441405,-5.4931640625,-2.197265625,6.65283203125
1780564494.0784457,0.12449848632812499,-9.702502227783203,1.0989385620117187,-5.2490234375,-1.77001953125,6.7138671875
1780564494.0824456,0.13766659545898435,-9.679757312011718,1.0797849487304687,-5.0048828125,-1.15966796875,6.8359375
1780564494.0864456,0.12210428466796874,-9.695319622802733,1.102529864501953,-5.0048828125,-0.79345703125,6.89697265625
1780564494.0904455,0.12808978881835936,-9.668983404541015,1.0905588562011719,-4.8828125,-0.244140625,7.6904296875
1780564494.0944455,0.1149216796875,-9.696516723632811,1.1085153686523437,-5.0048828125,-0.42724609375,8.056640625
1780564494.0984454,0.11372457885742186,-9.696516723632811,1.1252747802734375,-4.82177734375,0.30517578125,8.30078125
1780564494.1024454,0.13287819213867186,-9.72285294189453,1.1348515869140625,-4.8828125,0.3662109375,8.544921875
1780564494.1064453,0.10295067138671875,-9.692925421142577,1.1228805786132812,-5.18798828125,0.79345703125,8.60595703125
1780564494.1104453,0.1149216796875,-9.714473236083984,1.1180921752929687,-5.06591796875,0.8544921875,8.7890625
1780564494.1144452,0.12569558715820311,-9.702502227783203,1.1061211669921875,-5.126953125,1.28173828125,8.72802734375
1780564494.1184452,0.10654197387695312,-9.746794958496093,1.120486376953125,-5.67626953125,1.52587890625,8.544921875
1780564494.122445,0.10893617553710937,-9.765948571777344,1.120486376953125,-5.18798828125,1.5869140625,8.48388671875
1780564494.126445,0.15083470458984374,-9.781510882568359,1.1264718811035155,-5.615234375,1.89208984375,8.23974609375
1780564494.130445,0.14963760375976562,-9.83178911743164,1.1240776794433593,-5.37109375,1.52587890625,7.4462890625
1780564494.134445,0.18914193115234373,-9.86291373901367,1.139639990234375,-5.37109375,1.5869140625,6.9580078125
1780564494.138445,0.20470424194335937,-9.86291373901367,1.1324573852539062,-5.2490234375,1.64794921875,6.40869140625
1780564494.1424448,0.26336218261718747,-9.896432562255859,1.1109095703125,-5.06591796875,1.52587890625,5.615234375
1780564494.1464448,0.26815058593749996,-9.913191973876952,1.1049240661621094,-4.82177734375,1.8310546875,4.638671875
1780564494.1504447,0.22744915771484372,-9.938331091308592,1.1073182678222655,-4.82177734375,1.8310546875,3.84521484375
1780564494.1544447,0.20350714111328125,-9.932345587158203,1.083376251220703,-4.39453125,2.25830078125,2.9296875
1780564494.1584446,0.18315642700195311,-9.952696301269532,1.0965443603515623,-4.57763671875,2.62451171875,2.0751953125
1780564494.1624446,0.15442600708007811,-9.963470208740233,1.0893617553710937,-4.33349609375,2.9296875,1.3427734375
1780564494.1664445,0.11252747802734374,-9.973047015380859,1.0905588562011719,-4.2724609375,3.47900390625,0.54931640625
1780564494.1704445,0.09337386474609374,-9.94671079711914,1.1192892761230469,-4.0283203125,3.662109375,0.06103515625
1780564494.1744444,0.04548983154296875,-9.935936889648437,1.1372457885742187,-3.96728515625,3.60107421875,-0.30517578125
1780564494.1784444,0.022744915771484374,-9.958681805419921,1.150413897705078,-3.41796875,3.7841796875,-0.79345703125
1780564494.1824443,0.0383072265625,-9.950302099609374,1.1935095275878906,-3.23486328125,3.173828125,-1.0986328125
1780564494.1864443,0.037110125732421874,-9.97903251953125,1.2629413757324217,-2.86865234375,2.86865234375,-1.220703125
1780564494.1904442,0.016759411621093748,-10.000580334472655,1.350329736328125,-2.8076171875,2.44140625,-1.46484375
1780564494.1944442,-0.0143652099609375,-9.970652813720703,1.3395558288574219,-2.197265625,2.0751953125,-1.46484375
1780564494.1984441,-0.06105214233398437,-9.941922393798828,1.3180080139160155,-1.77001953125,2.13623046875,-1.220703125
1780564494.202444,-0.08499415893554688,-9.925162982177733,1.2689268798828124,-1.0986328125,2.74658203125,-1.0986328125
1780564494.206444,-0.0909796630859375,-9.896432562255859,1.2042834350585936,-0.30517578125,2.99072265625,-0.8544921875
1780564494.210444,-0.12210428466796874,-9.894038360595703,1.1384428894042968,0.42724609375,3.7841796875,-0.67138671875
1780564494.214444,-0.12449848632812499,-9.861716638183593,1.112106671142578,0.9765625,4.21142578125,0.0
1780564494.2184439,-0.11252747802734374,-9.86411083984375,1.0809820495605469,1.52587890625,4.39453125,0.1220703125
1780564494.2224438,-0.12689268798828124,-9.787496386718749,1.1168950744628905,1.8310546875,4.57763671875,-0.06103515625
1780564494.2264438,-0.14125789794921875,-9.785102185058593,1.1372457885742187,2.3193359375,4.08935546875,0.06103515625
1780564494.2304437,-0.15083470458984374,-9.74200655517578,1.1839327209472656,2.197265625,3.5400390625,-0.42724609375
1780564494.2344437,-0.1927332336425781,-9.730035546875,1.2126631408691406,1.89208984375,2.8076171875,-0.54931640625
1780564494.2384436,-0.18435352783203124,-9.683348614501952,1.2042834350585936,1.46484375,2.197265625,-1.0986328125
1780564494.2424436,-0.21787235107421873,-9.652223992919922,1.1563994018554686,0.9765625,1.15966796875,-1.28173828125
1780564494.2464435,-0.2609679809570312,-9.641450085449218,1.1336544860839843,0.54931640625,1.03759765625,-1.5869140625
1780564494.2504435,-0.24660277099609373,-9.622296472167967,1.0953472595214844,0.54931640625,0.54931640625,-1.953125
1780564494.2544434,-0.29089550170898437,-9.654618194580078,1.0690110412597655,0.54931640625,0.30517578125,-1.89208984375
1780564494.2584434,-0.258573779296875,-9.647435589599608,1.0366893188476562,0.48828125,0.244140625,-2.01416015625
1780564494.2624433,-0.2442085693359375,-9.652223992919922,1.073799444580078,0.54931640625,0.1220703125,-2.197265625
1780564494.2664433,-0.21308394775390624,-9.682151513671874,1.0678139404296874,0.244140625,-0.18310546875,-2.38037109375
1780564494.2704432,-0.17238251953125,-9.698910925292969,1.0809820495605469,0.3662109375,-0.3662109375,-2.50244140625
1780564494.2744431,-0.1580173095703125,-9.67856021118164,1.1133037719726562,0.06103515625,-0.6103515625,-2.74658203125
1780564494.278443,-0.15203180541992187,-9.690531219482422,1.1552023010253905,0.18310546875,-0.91552734375,-2.86865234375
1780564494.282443,-0.1484405029296875,-9.690531219482422,1.1264718811035155,0.06103515625,-1.0986328125,-2.86865234375
1780564494.286443,-0.143652099609375,-9.708487731933593,1.1552023010253905,-0.1220703125,-1.3427734375,-3.2958984375
1780564494.290443,-0.12330138549804687,-9.701305126953125,1.1671733093261718,0.244140625,-1.52587890625,-3.0517578125
1780564494.294443,-0.10414777221679687,-9.74200655517578,1.1755530151367186,0.67138671875,-1.8310546875,-3.41796875
1780564494.2984428,-0.1197100830078125,-9.734823950195311,1.1887211242675781,0.6103515625,-2.25830078125,-3.5400390625
1780564494.3024428,-0.11851298217773437,-9.726444244384766,1.1791443176269532,0.79345703125,-2.44140625,-3.47900390625
1780564494.3064427,-0.10893617553710937,-9.718064538574218,1.1959037292480468,0.91552734375,-2.685546875,-3.23486328125
1780564494.3104427,-0.11372457885742186,-9.70968483276367,1.2018892333984375,1.28173828125,-2.9296875,-3.11279296875
1780564494.3144426,-0.08858546142578125,-9.694122521972655,1.180341418457031,1.5869140625,-3.35693359375,-2.99072265625
1780564494.3184426,-0.08499415893554688,-9.685742816162108,1.13006318359375,1.64794921875,-3.2958984375,-2.50244140625
1780564494.3224425,-0.058657940673828124,-9.634267480468749,1.1168950744628905,1.28173828125,-3.5400390625,-2.197265625
1780564494.3264425,-0.0718260498046875,-9.613916766357422,1.1061211669921875,1.52587890625,-3.23486328125,-2.0751953125
1780564494.3304424,-0.04548983154296875,-9.606734161376952,1.0809820495605469,1.708984375,-3.41796875,-1.40380859375
1780564494.3344424,-0.03950432739257812,-9.60194575805664,1.0606313354492187,1.5869140625,-3.72314453125,-1.28173828125
1780564494.3384423,0.009576806640625,-9.585186346435547,1.061828436279297,1.64794921875,-3.47900390625,-0.732421875
1780564494.3424423,0.00239420166015625,-9.573215338134766,1.052251629638672,1.15966796875,-3.47900390625,-0.732421875
1780564494.3464422,-0.003591302490234375,-9.56962403564453,1.0187328063964842,0.9765625,-3.35693359375,-0.67138671875
1780564494.3504422,0.011971008300781249,-9.579200842285156,1.035492218017578,0.91552734375,-3.23486328125,-0.244140625
1780564494.3544421,0.047884033203124995,-9.593566052246093,0.9959878906249999,0.6103515625,-3.11279296875,-0.48828125
1780564494.358442,0.022744915771484374,-9.586383447265625,1.005564697265625,0.30517578125,-2.8076171875,-0.3662109375
1780564494.362442,0.051475335693359374,-9.60793126220703,0.9971849914550781,0.244140625,-2.5634765625,-0.67138671875
1780564494.366442,0.08379705810546874,-9.635464581298828,0.9888052856445312,-0.1220703125,-2.25830078125,-0.9765625
1780564494.370442,0.08978256225585937,-9.654618194580078,1.0043675964355467,-0.30517578125,-2.01416015625,-1.0986328125
1780564494.3744419,0.06703764648437499,-9.662997900390625,1.016338604736328,0.0,-1.708984375,-1.03759765625
1780564494.3784418,0.055066638183593745,-9.708487731933593,1.0199299072265624,-0.3662109375,-1.8310546875,-1.3427734375
1780564494.3824418,0.040701428222656245,-9.71686743774414,1.0295067138671874,0.0,-1.5869140625,-1.5869140625
1780564494.3864417,0.05027823486328125,-9.721655841064452,1.0462661254882812,0.06103515625,-1.28173828125,-1.708984375
1780564494.3904417,0.03232172241210937,-9.726444244384766,1.0366893188476562,0.1220703125,-1.15966796875,-1.5869140625
1780564494.3944416,-0.003591302490234375,-9.730035546875,1.0630255371093749,0.42724609375,-0.91552734375,-1.52587890625
1780564494.3984416,-0.013168109130859374,-9.713276135253906,1.0857704528808594,0.48828125,-1.03759765625,-1.8310546875
1780564494.4024415,-0.023942016601562498,-9.728838446044922,1.0809820495605469,1.03759765625,-1.40380859375,-1.46484375
1780564494.4064415,-0.033518823242187495,-9.718064538574218,1.0941501586914062,0.9765625,-1.15966796875,-1.64794921875
1780564494.4104414,-0.08140285644531249,-9.69771382446289,1.0845733520507812,1.40380859375,-1.5869140625,-1.220703125
1780564494.4144413,-0.09816226806640624,-9.690531219482422,1.0989385620117187,1.52587890625,-1.40380859375,-1.0986328125
1780564494.4184413,-0.1149216796875,-9.667786303710937,1.1168950744628905,1.64794921875,-1.77001953125,-0.8544921875
1780564494.4224412,-0.14245499877929688,-9.662997900390625,1.1049240661621094,1.89208984375,-1.77001953125,-0.30517578125
1780564494.4264412,-0.1640028137207031,-9.651026892089844,1.1372457885742187,2.197265625,-2.3193359375,-0.18310546875
1780564494.4304411,-0.143652099609375,-9.623493572998047,1.180341418457031,2.13623046875,-2.38037109375,0.244140625
1780564494.434441,-0.15562310791015624,-9.63307037963867,1.1563994018554686,2.25830078125,-2.86865234375,0.732421875
1780564494.438441,-0.14724340209960937,-9.595960253906249,1.1480196960449218,2.01416015625,-3.5400390625,0.9765625
1780564494.442441,-0.12449848632812499,-9.58279214477539,1.1336544860839843,2.38037109375,-3.90625,1.46484375
1780564494.446441,-0.11013327636718749,-9.583989245605467,1.1180921752929687,1.953125,-4.2724609375,1.64794921875
1780564494.450441,-0.07302315063476562,-9.551667523193359,1.1085153686523437,1.89208984375,-4.45556640625,1.77001953125
1780564494.4544408,-0.023942016601562498,-9.568426934814452,1.1073182678222655,1.52587890625,-5.0048828125,2.13623046875
1780564494.4584408,0.001197100830078125,-9.566032733154296,1.1073182678222655,1.3427734375,-4.82177734375,2.13623046875
1780564494.4624407,0.020350714111328123,-9.604339959716796,1.0989385620117187,1.220703125,-5.18798828125,2.44140625
1780564494.4664407,0.04189852905273437,-9.622296472167967,1.0773907470703123,1.03759765625,-4.94384765625,2.25830078125
1780564494.4704406,0.09816226806640624,-9.652223992919922,1.0845733520507812,0.67138671875,-4.94384765625,1.953125
1780564494.4744406,0.1005564697265625,-9.657012396240233,1.0678139404296874,0.54931640625,-4.57763671875,1.89208984375
1780564494.4784405,0.15442600708007811,-9.70369932861328,1.0630255371093749,0.30517578125,-4.2724609375,1.77001953125
1780564494.4824405,0.21787235107421873,-9.791087689208984,1.035492218017578,0.244140625,-4.2724609375,1.3427734375
1780564494.4864404,0.25139117431640623,-9.813832604980469,1.045069024658203,0.244140625,-3.7841796875,0.9765625
1780564494.4904404,0.30885201416015623,-9.855731134033203,1.0534487304687499,0.244140625,-3.35693359375,0.3662109375
1780564494.4944403,0.33039982910156246,-9.910797772216796,1.0534487304687499,0.6103515625,-2.685546875,0.0
1780564494.4984403,0.32082302246093747,-9.897629663085937,1.0486603271484374,0.8544921875,-1.89208984375,-0.67138671875
1780564494.5024402,0.2765302917480469,-9.89523546142578,1.073799444580078,0.79345703125,-0.8544921875,-1.64794921875
1780564494.5064402,0.28969840087890625,-9.889249957275391,1.0486603271484374,0.9765625,0.0,-2.0751953125
1780564494.51044,0.2765302917480469,-9.911994873046874,1.054645831298828,0.8544921875,0.91552734375,-2.74658203125
1780564494.51444,0.3232172241210937,-9.898826763916015,1.052251629638672,0.79345703125,1.64794921875,-3.60107421875
1780564494.51844,0.3028665100097656,-9.90241806640625,1.061828436279297,0.91552734375,1.953125,-3.96728515625
1780564494.52244,0.2442085693359375,-9.85094273071289,1.0977414611816405,1.0986328125,2.50244140625,-4.21142578125
1780564494.52644,0.1927332336425781,-9.81862100830078,1.1659762084960936,1.28173828125,3.0517578125,-4.45556640625
1780564494.5304399,0.15442600708007811,-9.728838446044922,1.2030863342285156,1.46484375,3.41796875,-4.57763671875
1780564494.5344398,0.11731588134765625,-9.732429748535155,1.1815385192871093,0.8544921875,4.150390625,-5.0048828125
1780564494.5384398,0.12569558715820311,-9.823409411621093,1.1659762084960936,0.54931640625,3.47900390625,-5.0048828125
1780564494.5424397,0.14724340209960937,-9.809044201660155,1.189918225097656,0.54931640625,3.0517578125,-5.18798828125
1780564494.5464396,0.08738836059570312,-9.777919580078125,1.2174515441894531,0.1220703125,2.5634765625,-4.7607421875
1780564494.5504396,0.020350714111328123,-9.763554370117188,1.2581529724121092,0.3662109375,2.0751953125,-4.39453125
1780564494.5544395,-0.03950432739257812,-9.76116016845703,1.2318167541503906,0.6103515625,1.64794921875,-4.0283203125
1780564494.5584395,-0.076614453125,-9.757568865966796,1.2042834350585936,0.732421875,1.77001953125,-3.5400390625
1780564494.5624394,-0.028730419921875,-9.779116680908203,1.2042834350585936,1.28173828125,1.46484375,-2.74658203125
1780564494.5664394,-0.047884033203124995,-9.813832604980469,1.1755530151367186,1.15966796875,1.220703125,-1.89208984375
1780564494.5704393,-0.04668693237304687,-9.807847100830077,1.2114660400390624,1.64794921875,0.79345703125,-1.220703125
1780564494.5744393,-0.027533319091796873,-9.798270294189452,1.2389993591308592,1.77001953125,0.42724609375,-1.0986328125
1780564494.5784392,-0.009576806640625,-9.791087689208984,1.2521674682617188,1.953125,0.0,-1.03759765625
1780564494.5824392,-0.02633621826171875,-9.832986218261718,1.24498486328125,1.953125,-0.3662109375,-1.0986328125
1780564494.5864391,-0.040701428222656245,-9.889249957275391,1.159990704345703,2.25830078125,-0.244140625,-1.708984375
1780564494.590439,-0.05746083984375,-9.874884747314452,1.1791443176269532,2.0751953125,-0.48828125,-2.25830078125
1780564494.594439,-0.055066638183593745,-9.885658654785155,1.1360486877441405,2.13623046875,-0.18310546875,-3.11279296875
1780564494.598439,-0.05746083984375,-9.884461553955077,1.1456254943847655,2.38037109375,-0.18310546875,-3.5400390625
1780564494.602439,-0.06943184814453125,-9.896432562255859,1.1731588134765625,2.50244140625,-0.6103515625,-4.150390625
1780564494.6064389,-0.06823474731445311,-9.886855755615233,1.1947066284179686,2.50244140625,-0.8544921875,-4.69970703125
1780564494.6104388,-0.105344873046875,-9.891644158935547,1.2605471740722656,2.74658203125,-1.40380859375,-5.31005859375
1780564494.6144388,-0.11731588134765625,-9.898826763916015,1.2773065856933592,2.9296875,-2.01416015625,-6.04248046875
1780564494.6184387,-0.09576806640624999,-9.938331091308592,1.2856862915039062,2.86865234375,-2.86865234375,-6.8359375
1780564494.6224387,-0.105344873046875,-9.925162982177733,1.3443442321777344,3.41796875,-3.35693359375,-7.4462890625
1780564494.6264386,-0.09576806640624999,-9.897629663085937,1.3395558288574219,3.173828125,-4.150390625,-7.6904296875
1780564494.6304386,-0.11013327636718749,-9.866505041503906,1.2928688964843749,3.47900390625,-4.638671875,-7.9345703125
1780564494.6344385,-0.07900865478515624,-9.873687646484374,1.2425906616210938,3.5400390625,-5.18798828125,-7.75146484375
1780564494.6384385,-0.09337386474609374,-9.789890588378906,1.2042834350585936,3.90625,-5.126953125,-7.6904296875
1780564494.6424384,-0.055066638183593745,-9.744400756835937,1.1791443176269532,4.2724609375,-5.126953125,-7.2021484375
1780564494.6464384,-0.03232172241210937,-9.706093530273437,1.1743559143066407,4.45556640625,-5.2490234375,-6.77490234375
1780564494.6504383,-0.01915361328125,-9.694122521972655,1.1432312927246093,4.33349609375,-5.06591796875,-5.9814453125
1780564494.6544383,0.040701428222656245,-9.714473236083984,1.1863269226074218,4.39453125,-5.4931640625,-5.37109375
1780564494.6584382,0.06464344482421874,-9.696516723632811,1.2030863342285156,4.69970703125,-5.55419921875,-4.8828125
1780564494.6624382,0.1304839904785156,-9.696516723632811,1.180341418457031,4.2724609375,-5.79833984375,-4.150390625
1780564494.666438,0.09696516723632811,-9.704896429443359,1.2174515441894531,4.7607421875,-5.9814453125,-3.41796875
1780564494.670438,0.11851298217773437,-9.610325463867188,1.199495031738281,5.0048828125,-5.4931640625,-3.11279296875
1780564494.674438,0.16759411621093748,-9.585186346435547,1.1755530151367186,4.8828125,-5.43212890625,-2.3193359375
1780564494.678438,0.2657563842773437,-9.631873278808593,1.1659762084960936,5.18798828125,-5.18798828125,-2.25830078125
1780564494.682438,0.3363853332519531,-9.642647186279296,1.1252747802734375,5.06591796875,-5.06591796875,-1.953125
1780564494.6864378,0.3507505432128906,-9.578003741455078,1.1851298217773436,5.0048828125,-4.5166015625,-1.46484375
1780564494.6904378,0.41419688720703124,-9.587580548095703,1.1947066284179686,5.37109375,-4.21142578125,-1.64794921875
1780564494.6944377,0.4273649963378906,-9.618705169677733,1.1468225952148436,5.0048828125,-3.35693359375,-2.0751953125
1780564494.6984377,0.4381389038085937,-9.668983404541015,1.1252747802734375,4.638671875,-2.8076171875,-2.25830078125
1780564494.7024376,0.49200844116210934,-9.631873278808593,1.131260284423828,4.7607421875,-1.89208984375,-2.685546875
1780564494.7064376,0.42377369384765623,-9.593566052246093,1.1276689819335937,4.69970703125,-1.40380859375,-2.8076171875
1780564494.7104375,0.42497079467773435,-9.631873278808593,1.1133037719726562,4.33349609375,-0.30517578125,-3.60107421875
1780564494.7144375,0.4369418029785156,-9.625887774658203,1.1109095703125,4.08935546875,-0.18310546875,-3.84521484375
1780564494.7184374,0.38666356811523434,-9.549273321533203,1.1635820068359375,3.84521484375,0.42724609375,-4.21142578125
1780564494.7224374,0.3746925598144531,-9.508571893310547,1.2150573425292968,3.47900390625,0.67138671875,-4.69970703125
1780564494.7264373,0.35314474487304687,-9.51814869995117,1.209071838378906,3.0517578125,0.6103515625,-4.57763671875
1780564494.7304373,0.3280056274414062,-9.455899456787108,1.209071838378906,2.62451171875,0.0,-4.33349609375
1780564494.7344372,0.3280056274414062,-9.37210239868164,1.2210428466796874,2.25830078125,0.06103515625,-4.150390625
1780564494.7384372,0.29089550170898437,-9.361328491210937,1.235408056640625,1.8310546875,-0.18310546875,-3.5400390625
1780564494.7424371,0.2753331909179687,-9.393650213623046,1.2018892333984375,1.28173828125,-0.30517578125,-3.0517578125
1780564494.746437,0.23822306518554687,-9.363722692871093,1.1935095275878906,0.67138671875,-0.732421875,-2.74658203125
1780564494.750437,0.23104046020507812,-9.336189373779296,1.2234370483398436,0.48828125,-0.48828125,-2.01416015625
1780564494.754437,0.2262520568847656,-9.369708197021485,1.2126631408691406,-0.18310546875,-0.18310546875,-1.40380859375
1780564494.758437,0.24301146850585936,-9.388861810302734,1.1671733093261718,-0.42724609375,-0.1220703125,-0.9765625
1780564494.7624369,0.2214636535644531,-9.382876306152344,1.1516109985351561,-0.8544921875,-0.244140625,-0.42724609375
1780564494.7664368,0.2597708801269531,-9.387664709472656,1.13006318359375,-0.9765625,0.18310546875,0.1220703125
1780564494.7704368,0.21787235107421873,-9.430760339355468,1.149216796875,-1.40380859375,0.8544921875,0.6103515625
1780564494.7744367,0.24660277099609373,-9.4618849609375,1.1288660827636718,-1.40380859375,0.8544921875,1.03759765625
1780564494.7784367,0.2262520568847656,-9.481038574218749,1.1168950744628905,-1.77001953125,1.03759765625,1.46484375
1780564494.7824366,0.21428104858398436,-9.453505255126952,1.16837041015625,-2.13623046875,1.46484375,1.5869140625
1780564494.7864366,0.22744915771484372,-9.482235675048827,1.1540052001953125,-2.25830078125,1.5869140625,1.46484375
1780564494.7904365,0.22026655273437498,-9.515754498291015,1.1863269226074218,-2.5634765625,1.5869140625,1.5869140625
1780564494.7944365,0.22026655273437498,-9.533711010742186,1.2030863342285156,-2.62451171875,1.52587890625,1.64794921875
1780564494.7984364,0.23702596435546874,-9.516951599121093,1.20667763671875,-2.99072265625,1.40380859375,1.64794921875
1780564494.8024364,0.201112939453125,-9.542090716552734,1.2078747375488281,-3.11279296875,1.40380859375,1.15966796875
1780564494.8064363,0.20231004028320312,-9.54448491821289,1.199495031738281,-2.99072265625,1.40380859375,1.46484375
1780564494.8104362,0.18914193115234373,-9.536105212402344,1.1791443176269532,-3.23486328125,1.5869140625,1.40380859375
1780564494.8144362,0.14484920043945312,-9.53131680908203,1.1959037292480468,-3.41796875,1.708984375,1.52587890625
1780564494.8184361,0.15442600708007811,-9.561244329833984,1.1947066284179686,-3.173828125,1.953125,1.46484375
1780564494.822436,0.16759411621093748,-9.581595043945311,1.158793603515625,-3.41796875,2.0751953125,1.5869140625
1780564494.826436,0.16041151123046873,-9.575609539794922,1.1264718811035155,-3.5400390625,1.89208984375,1.52587890625
1780564494.830436,0.12808978881835936,-9.59476315307617,1.1647791076660157,-3.662109375,2.01416015625,1.3427734375
1780564494.834436,0.13766659545898435,-9.627084875488281,1.1360486877441405,-3.60107421875,2.01416015625,1.15966796875
1780564494.838436,0.08499415893554688,-9.652223992919922,1.1468225952148436,-3.47900390625,2.25830078125,1.40380859375
1780564494.8424358,0.10414777221679687,-9.686939916992188,1.1324573852539062,-3.5400390625,2.3193359375,1.40380859375
1780564494.8464358,0.062249243164062495,-9.718064538574218,1.1791443176269532,-3.5400390625,2.44140625,1.52587890625
1780564494.8504357,0.055066638183593745,-9.724050042724608,1.1839327209472656,-3.662109375,2.3193359375,1.52587890625
1780564494.8544357,0.044292730712890624,-9.732429748535155,1.1959037292480468,-3.11279296875,2.3193359375,1.52587890625
1780564494.8584356,0.05746083984375,-9.758765966796874,1.1947066284179686,-2.9296875,1.77001953125,1.8310546875
1780564494.8624356,0.05985504150390625,-9.783905084228515,1.2126631408691406,-2.5634765625,1.77001953125,1.64794921875
1780564494.8664355,0.05386953735351562,-9.828197814941406,1.1839327209472656,-2.44140625,1.40380859375,1.5869140625
1780564494.8704355,0.025139117431640625,-9.822212310791015,1.1468225952148436,-2.13623046875,1.28173828125,1.953125
1780564494.8744354,0.029927520751953124,-9.830592016601562,1.140837091064453,-2.13623046875,1.15966796875,1.64794921875
1780564494.8784354,0.016759411621093748,-9.813832604980469,1.1180921752929687,-1.8310546875,1.220703125,1.77001953125
1780564494.8824353,0.0,-9.85094273071289,1.120486376953125,-1.5869140625,1.220703125,1.52587890625
1780564494.8864353,0.034715924072265626,-9.841365924072266,1.1156979736328125,-1.28173828125,1.03759765625,1.52587890625
1780564494.8904352,0.04548983154296875,-9.83178911743164,1.1109095703125,-1.0986328125,1.52587890625,1.3427734375
1780564494.8944352,0.06703764648437499,-9.848548529052733,1.13006318359375,-0.79345703125,1.3427734375,1.40380859375
1780564494.898435,0.08259995727539061,-9.836577520751952,1.0977414611816405,-0.67138671875,1.220703125,0.9765625
1780564494.902435,0.11133037719726561,-9.841365924072266,1.1336544860839843,-0.6103515625,1.28173828125,0.79345703125
1780564494.906435,0.15083470458984374,-9.797073193359374,1.1384428894042968,-0.54931640625,0.91552734375,0.3662109375
1780564494.910435,0.11851298217773437,-9.776722479248047,1.1468225952148436,-0.67138671875,0.8544921875,0.06103515625
1780564494.914435,0.1149216796875,-9.746794958496093,1.1767501159667968,-0.54931640625,0.8544921875,-0.30517578125
1780564494.9184349,0.12689268798828124,-9.769539874267577,1.1671733093261718,-0.91552734375,0.8544921875,-0.48828125
1780564494.9224348,0.11133037719726561,-9.759963067626952,1.1647791076660157,-0.54931640625,0.67138671875,-0.79345703125
1780564494.9264348,0.10295067138671875,-9.776722479248047,1.159990704345703,-0.54931640625,0.91552734375,-1.0986328125
1780564494.9304347,0.09576806640624999,-9.713276135253906,1.1635820068359375,-0.6103515625,0.79345703125,-0.91552734375
1780564494.9344347,0.08140285644531249,-9.737218151855469,1.189918225097656,-0.244140625,0.91552734375,-1.0986328125
1780564494.9384346,0.08858546142578125,-9.700108026123047,1.1935095275878906,-0.244140625,0.6103515625,-0.91552734375
1780564494.9424345,0.047884033203124995,-9.683348614501952,1.2126631408691406,-0.42724609375,0.54931640625,-0.48828125
1780564494.9464345,0.06344634399414062,-9.655815295410155,1.2018892333984375,-0.3662109375,0.3662109375,-0.3662109375
1780564494.9504344,0.044292730712890624,-9.660603698730467,1.2294225524902342,-0.54931640625,-0.1220703125,0.244140625
1780564494.9544344,0.02154781494140625,-9.629479077148437,1.2282254516601563,-0.732421875,-0.244140625,0.54931640625
1780564494.9584343,0.07302315063476562,-9.624690673828125,1.2330138549804688,-0.79345703125,-0.3662109375,1.15966796875
1780564494.9624343,0.07781155395507812,-9.593566052246093,1.2018892333984375,-0.9765625,-0.42724609375,1.52587890625
1780564494.9664342,0.06703764648437499,-9.606734161376952,1.2078747375488281,-0.79345703125,-0.79345703125,1.77001953125
1780564494.9704342,0.08978256225585937,-9.63307037963867,1.20667763671875,-1.46484375,-0.79345703125,2.0751953125
1780564494.9744341,0.14963760375976562,-9.647435589599608,1.2294225524902342,-1.5869140625,-0.79345703125,2.13623046875
1780564494.978434,0.17357962036132812,-9.654618194580078,1.2378022583007813,-1.52587890625,-1.15966796875,2.0751953125
1780564494.982434,0.23223756103515625,-9.728838446044922,1.2282254516601563,-1.953125,-1.15966796875,1.8310546875
1780564494.986434,0.22385785522460935,-9.733626849365233,1.2294225524902342,-1.77001953125,-1.0986328125,1.89208984375
1780564494.990434,0.23702596435546874,-9.720458740234374,1.2246341491699217,-1.8310546875,-1.15966796875,1.708984375
1780564494.9944339,0.2442085693359375,-9.767145672607422,1.2198457458496093,-2.0751953125,-0.91552734375,1.28173828125
1780564494.9984338,0.28730419921875,-9.80665,1.1935095275878906,-1.953125,-0.732421875,0.9765625
1780564495.0024338,0.2753331909179687,-9.809044201660155,1.1887211242675781,-1.5869140625,-0.54931640625,0.54931640625
1780564495.0064337,0.2765302917480469,-9.787496386718749,1.1755530151367186,-1.40380859375,0.0,0.30517578125
1780564495.0104337,0.2885013000488281,-9.816226806640625,1.1659762084960936,-1.5869140625,0.18310546875,0.1220703125
1780564495.0144336,0.2825157958984375,-9.781510882568359,1.1707646118164061,-1.28173828125,0.54931640625,-0.3662109375
1780564495.0184336,0.2657563842773437,-9.789890588378906,1.1635820068359375,-1.28173828125,0.67138671875,-0.54931640625
1780564495.0224335,0.2454056701660156,-9.792284790039062,1.1731588134765625,-0.79345703125,1.03759765625,-0.732421875
1780564495.0264335,0.22385785522460935,-9.744400756835937,1.1695675109863282,-0.91552734375,1.03759765625,-1.03759765625
1780564495.0304334,0.24061726684570311,-9.74200655517578,1.1791443176269532,-0.9765625,1.40380859375,-0.79345703125
1780564495.0344334,0.20709844360351562,-9.720458740234374,1.1659762084960936,-0.91552734375,1.40380859375,-0.91552734375
1780564495.0384333,0.21068974609375,-9.727641345214844,1.1635820068359375,-1.03759765625,1.40380859375,-0.9765625
1780564495.0424333,0.16879121704101563,-9.733626849365233,1.1947066284179686,-1.15966796875,1.46484375,-0.8544921875
1780564495.0464332,0.14724340209960937,-9.75517466430664,1.2413935607910156,-0.9765625,0.9765625,-0.67138671875
1780564495.0504332,0.1484405029296875,-9.777919580078125,1.2425906616210938,-1.03759765625,0.9765625,-0.48828125
1780564495.054433,0.15203180541992187,-9.759963067626952,1.246181964111328,-0.54931640625,0.8544921875,-0.54931640625
1780564495.058433,0.1592144104003906,-9.7683427734375,1.2425906616210938,-0.6103515625,0.42724609375,-0.30517578125
1780564495.062433,0.15083470458984374,-9.765948571777344,1.2473790649414063,-0.48828125,0.244140625,-0.06103515625
1780564495.066433,0.16041151123046873,-9.738415252685547,1.2282254516601563,-0.06103515625,0.30517578125,0.244140625
1780564495.070433,0.1484405029296875,-9.746794958496093,1.209071838378906,-0.244140625,0.42724609375,0.3662109375
1780564495.0744328,0.16879121704101563,-9.73602105102539,1.199495031738281,-0.06103515625,0.48828125,0.6103515625
1780564495.0784328,0.19033903198242186,-9.720458740234374,1.1827356201171875,-0.06103515625,0.79345703125,1.03759765625
1780564495.0824327,0.1879448303222656,-9.706093530273437,1.1743559143066407,0.06103515625,0.6103515625,0.91552734375
1780564495.0864327,0.1867477294921875,-9.739612353515625,1.1743559143066407,-0.18310546875,0.79345703125,0.91552734375
1780564495.0904326,0.19632453613281248,-9.724050042724608,1.1791443176269532,-0.18310546875,0.91552734375,1.40380859375
1780564495.0944326,0.18914193115234373,-9.724050042724608,1.189918225097656,-0.244140625,0.9765625,1.77001953125
1780564495.0984325,0.1927332336425781,-9.688137017822266,1.1671733093261718,-0.1220703125,1.03759765625,1.708984375
1780564495.1024325,0.17477672119140625,-9.724050042724608,1.1731588134765625,-0.1220703125,1.3427734375,1.89208984375
1780564495.1064324,0.17597382202148437,-9.70369932861328,1.1791443176269532,-0.1220703125,1.15966796875,1.953125
1780564495.1104324,0.16879121704101563,-9.710881933593749,1.1767501159667968,-0.30517578125,1.28173828125,1.64794921875
1780564495.1144323,0.1867477294921875,-9.704896429443359,1.1743559143066407,-0.244140625,1.52587890625,1.3427734375
1780564495.1184323,0.15682020874023436,-9.731232647705077,1.1528080993652343,-0.48828125,1.3427734375,1.220703125
1780564495.1224322,0.18076222534179687,-9.750386260986328,1.149216796875,-0.67138671875,1.52587890625,0.8544921875
1780564495.1264322,0.14604630126953125,-9.74799205932617,1.1073182678222655,-0.54931640625,1.46484375,1.03759765625
1780564495.1304321,0.15083470458984374,-9.758765966796874,1.1420341918945311,-0.54931640625,1.52587890625,0.6103515625
1780564495.134432,0.14006079711914063,-9.743203656005859,1.1276689819335937,-0.54931640625,1.52587890625,0.54931640625
1780564495.138432,0.13287819213867186,-9.775525378417969,1.1348515869140625,-0.3662109375,1.5869140625,0.3662109375
1780564495.142432,0.14484920043945312,-9.763554370117188,1.1252747802734375,-0.30517578125,1.52587890625,0.30517578125
1780564495.146432,0.09816226806640624,-9.77432827758789,1.1755530151367186,-0.1220703125,1.64794921875,0.6103515625
1780564495.1504319,0.076614453125,-9.785102185058593,1.1575965026855468,0.30517578125,1.3427734375,0.54931640625
1780564495.1544318,0.0909796630859375,-9.74799205932617,1.1611878051757811,0.06103515625,1.40380859375,0.732421875
1780564495.1584318,0.07900865478515624,-9.726444244384766,1.1719617126464843,0.3662109375,1.15966796875,1.0986328125
1780564495.1624317,0.09576806640624999,-9.763554370117188,1.1420341918945311,0.3662109375,0.9765625,0.9765625
1780564495.1664317,0.076614453125,-9.725247143554688,1.1228805786132812,0.3662109375,1.15966796875,1.220703125
1780564495.1704316,0.105344873046875,-9.708487731933593,1.1264718811035155,0.18310546875,1.03759765625,1.40380859375
1780564495.1744316,0.07541735229492187,-9.707290631103515,1.149216796875,0.42724609375,0.8544921875,1.5869140625
1780564495.1784315,0.06344634399414062,-9.704896429443359,1.149216796875,0.30517578125,0.91552734375,1.5869140625
1780564495.1824315,0.03591302490234375,-9.707290631103515,1.1563994018554686,0.3662109375,0.6103515625,1.64794921875
1780564495.1864314,0.07541735229492187,-9.715670336914062,1.158793603515625,0.06103515625,0.54931640625,1.28173828125
1780564495.1904314,0.08140285644531249,-9.686939916992188,1.1815385192871093,0.3662109375,0.42724609375,1.40380859375
1780564495.1944313,0.12569558715820311,-9.695319622802733,1.1635820068359375,0.3662109375,0.18310546875,0.8544921875
1780564495.1984313,0.10414777221679687,-9.70968483276367,1.1767501159667968,0.06103515625,-0.1220703125,1.03759765625
1780564495.2024312,0.10773907470703124,-9.696516723632811,1.1659762084960936,0.3662109375,-0.42724609375,0.79345703125
1780564495.2064312,0.12210428466796874,-9.707290631103515,1.1623849060058593,0.30517578125,-0.54931640625,0.6103515625
1780564495.210431,0.12330138549804687,-9.710881933593749,1.1635820068359375,0.48828125,-0.732421875,0.1220703125
1780564495.214431,0.16879121704101563,-9.720458740234374,1.1695675109863282,0.3662109375,-0.91552734375,0.1220703125
1780564495.218431,0.17956512451171874,-9.743203656005859,1.1480196960449218,0.6103515625,-0.54931640625,0.06103515625
1780564495.222431,0.18315642700195311,-9.739612353515625,1.120486376953125,0.732421875,-0.42724609375,-0.30517578125
1780564495.226431,0.19632453613281248,-9.745597857666015,1.1240776794433593,0.67138671875,-0.3662109375,-0.244140625
1780564495.2304308,0.21188684692382811,-9.764751470947266,1.102529864501953,0.8544921875,-0.18310546875,-0.244140625
1780564495.2344308,0.21906945190429686,-9.737218151855469,1.1085153686523437,1.0986328125,0.1220703125,-0.54931640625
1780564495.2384307,0.229843359375,-9.71686743774414,1.0917559570312498,0.9765625,0.18310546875,-0.6103515625
1780564495.2424307,0.201112939453125,-9.72285294189453,1.102529864501953,0.67138671875,0.67138671875,-0.732421875
1780564495.2464306,0.22744915771484372,-9.689334118652344,1.139639990234375,1.0986328125,0.54931640625,-0.9765625
1780564495.2504306,0.19512743530273435,-9.634267480468749,1.1276689819335937,1.220703125,0.9765625,-0.91552734375
1780564495.2544305,0.17238251953125,-9.595960253906249,1.1611878051757811,0.8544921875,1.220703125,-0.91552734375
1780564495.2584305,0.20709844360351562,-9.64025298461914,1.1468225952148436,0.9765625,0.9765625,-0.732421875
1780564495.2624304,0.1580173095703125,-9.625887774658203,1.120486376953125,0.8544921875,0.79345703125,-0.3662109375
1780564495.2664304,0.14724340209960937,-9.589974749755859,1.1540052001953125,0.79345703125,1.46484375,-0.42724609375
1780564495.2704303,0.1388636962890625,-9.610325463867188,1.1755530151367186,0.732421875,1.28173828125,-0.1220703125
1780564495.2744303,0.16759411621093748,-9.623493572998047,1.1552023010253905,0.79345703125,1.28173828125,-0.3662109375
1780564495.2784302,0.18315642700195311,-9.60793126220703,1.1444283935546875,0.6103515625,1.0986328125,-0.18310546875
1780564495.2824302,0.17357962036132812,-9.599551556396484,1.1863269226074218,0.42724609375,0.79345703125,-0.30517578125
1780564495.2864301,0.2214636535644531,-9.581595043945311,1.1815385192871093,0.3662109375,0.54931640625,-0.3662109375
1780564495.29043,0.1975216369628906,-9.588777648925781,1.1540052001953125,0.30517578125,0.48828125,-0.30517578125
1780564495.29443,0.21428104858398436,-9.567229833984374,1.1528080993652343,-0.06103515625,0.48828125,-0.42724609375
1780564495.29843,0.1975216369628906,-9.543287817382812,1.1528080993652343,-0.42724609375,0.79345703125,-0.244140625
1780564495.30243,0.201112939453125,-9.59476315307617,1.13006318359375,-0.54931640625,0.79345703125,-0.42724609375
1780564495.3064299,0.21308394775390624,-9.618705169677733,1.1228805786132812,-0.6103515625,1.03759765625,-0.244140625
1780564495.3104298,0.19991583862304688,-9.618705169677733,1.1420341918945311,-0.732421875,1.15966796875,-0.30517578125
1780564495.3144298,0.23343466186523437,-9.622296472167967,1.1480196960449218,-0.67138671875,1.28173828125,-0.06103515625
1780564495.3184297,0.2262520568847656,-9.654618194580078,1.1552023010253905,-0.9765625,1.3427734375,-0.30517578125
1780564495.3224297,0.22266075439453123,-9.655815295410155,1.180341418457031,-1.0986328125,1.28173828125,0.06103515625
1780564495.3264296,0.24061726684570311,-9.647435589599608,1.180341418457031,-1.0986328125,1.220703125,0.06103515625
1780564495.3304296,0.2166752502441406,-9.658209497070311,1.1947066284179686,-1.28173828125,1.220703125,0.1220703125
1780564495.3344295,0.24181436767578124,-9.674968908691406,1.1743559143066407,-1.46484375,1.46484375,0.18310546875
1780564495.3384295,0.22744915771484372,-9.674968908691406,1.1444283935546875,-1.28173828125,1.52587890625,0.06103515625
1780564495.3424294,0.22026655273437498,-9.673771807861328,1.1528080993652343,-1.3427734375,1.89208984375,0.3662109375
1780564495.3464293,0.21906945190429686,-9.672574707031249,1.1145008728027344,-1.3427734375,2.13623046875,0.1220703125
1780564495.3504293,0.16998831787109375,-9.65342109375,1.0965443603515623,-1.28173828125,2.44140625,0.18310546875
1780564495.3544292,0.14245499877929688,-9.670180505371093,1.112106671142578,-1.15966796875,2.74658203125,0.18310546875
1780564495.3584292,0.16041151123046873,-9.670180505371093,1.1180921752929687,-1.15966796875,2.9296875,0.3662109375
1780564495.3624291,0.15203180541992187,-9.667786303710937,1.1336544860839843,-1.03759765625,2.8076171875,0.244140625
1780564495.366429,0.11013327636718749,-9.674968908691406,1.1324573852539062,-1.15966796875,3.0517578125,0.30517578125
1780564495.370429,0.07422025146484375,-9.690531219482422,1.139639990234375,-1.03759765625,2.8076171875,0.42724609375
1780564495.374429,0.08738836059570312,-9.707290631103515,1.180341418457031,-0.9765625,2.50244140625,0.3662109375
1780564495.378429,0.047884033203124995,-9.718064538574218,1.1815385192871093,-0.91552734375,2.44140625,0.3662109375
1780564495.382429,0.027533319091796873,-9.713276135253906,1.1827356201171875,-0.8544921875,2.0751953125,0.48828125
1780564495.3864288,0.015562310791015624,-9.695319622802733,1.149216796875,-0.91552734375,1.708984375,0.244140625
1780564495.3904288,0.0047884033203125,-9.715670336914062,1.150413897705078,-0.79345703125,1.52587890625,0.1220703125
1780564495.3944287,-0.001197100830078125,-9.718064538574218,1.1288660827636718,-0.732421875,1.52587890625,0.244140625
1780564495.3984287,-0.027533319091796873,-9.740809454345703,1.1324573852539062,-0.67138671875,1.03759765625,0.42724609375
1780564495.4024286,-0.008379705810546874,-9.74799205932617,1.1420341918945311,-0.732421875,1.0986328125,0.3662109375
1780564495.4064286,-0.03591302490234375,-9.744400756835937,1.1635820068359375,-0.3662109375,0.732421875,0.6103515625
1780564495.4104285,-0.04189852905273437,-9.758765966796874,1.1767501159667968,-0.3662109375,0.91552734375,0.6103515625
1780564495.4144285,-0.06703764648437499,-9.739612353515625,1.1982979309082031,-0.18310546875,0.79345703125,0.79345703125
1780564495.4184284,-0.011971008300781249,-9.76116016845703,1.2401964599609374,-0.1220703125,0.3662109375,1.15966796875
1780564495.4224284,-0.00718260498046875,-9.759963067626952,1.2342109558105467,0.1220703125,-0.06103515625,1.3427734375
1780564495.4264283,0.02154781494140625,-9.737218151855469,1.2413935607910156,0.54931640625,-0.30517578125,1.40380859375
1780564495.4304283,0.04189852905273437,-9.698910925292969,1.22583125,0.244140625,-0.54931640625,1.220703125
1780564495.4344282,0.08140285644531249,-9.695319622802733,1.2054805358886718,0.6103515625,-1.0986328125,1.3427734375
1780564495.4384282,0.08738836059570312,-9.648632690429688,1.1731588134765625,0.6103515625,-0.9765625,1.220703125
1780564495.442428,0.12210428466796874,-9.666589202880859,1.1540052001953125,0.67138671875,-0.91552734375,1.220703125
1780564495.446428,0.11611878051757812,-9.629479077148437,1.112106671142578,0.3662109375,-0.48828125,1.03759765625
1780564495.450428,0.11252747802734374,-9.628281976318359,1.0678139404296874,0.3662109375,-0.30517578125,0.8544921875
1780564495.454428,0.1484405029296875,-9.617508068847656,1.0498574279785156,0.1220703125,0.0,0.732421875
1780564495.458428,0.15562310791015624,-9.589974749755859,1.0390835205078124,-0.06103515625,0.48828125,0.79345703125
1780564495.4624279,0.17836802368164062,-9.610325463867188,1.0295067138671874,-0.30517578125,0.67138671875,0.42724609375
1780564495.4664278,0.17597382202148437,-9.58279214477539,1.0402806213378906,-0.48828125,0.9765625,0.244140625
1780564495.4704278,0.19871873779296872,-9.597157354736327,1.0414777221679687,-0.8544921875,1.28173828125,0.0
1780564495.4744277,0.1879448303222656,-9.616310968017578,1.0582371337890624,-1.15966796875,1.15966796875,-0.244140625
1780564495.4784276,0.2059013427734375,-9.664195001220703,1.0666168395996094,-1.28173828125,1.77001953125,-0.48828125
1780564495.4824276,0.18914193115234373,-9.668983404541015,1.0917559570312498,-1.708984375,1.89208984375,-0.8544921875
1780564495.4864275,0.19632453613281248,-9.680954412841796,1.0857704528808594,-1.77001953125,2.3193359375,-1.28173828125
1780564495.4904275,0.1867477294921875,-9.70968483276367,1.0989385620117187,-1.89208984375,2.74658203125,-1.52587890625
1780564495.4944274,0.14963760375976562,-9.698910925292969,1.1228805786132812,-1.8310546875,3.11279296875,-1.77001953125
1780564495.4984274,0.15083470458984374,-9.694122521972655,1.0989385620117187,-1.77001953125,3.60107421875,-1.8310546875
1780564495.5024273,0.1388636962890625,-9.714473236083984,1.1264718811035155,-1.40380859375,3.662109375,-1.77001953125
1780564495.5064273,0.10773907470703124,-9.698910925292969,1.1480196960449218,-1.3427734375,3.60107421875,-1.89208984375
1780564495.5104272,0.044292730712890624,-9.713276135253906,1.1420341918945311,-0.8544921875,3.72314453125,-1.89208984375
1780564495.5144272,0.02154781494140625,-9.70968483276367,1.1671733093261718,-0.79345703125,3.5400390625,-1.40380859375
1780564495.5184271,-0.0143652099609375,-9.706093530273437,1.1647791076660157,-0.9765625,3.5400390625,-1.28173828125
1780564495.522427,-0.05626373901367187,-9.649829791259766,1.1959037292480468,-0.67138671875,2.8076171875,-0.91552734375
1780564495.526427,-0.04189852905273437,-9.63307037963867,1.209071838378906,-0.54931640625,2.50244140625,-0.6103515625
1780564495.530427,-0.05626373901367187,-9.60194575805664,1.216254443359375,-0.732421875,1.64794921875,-0.30517578125
1780564495.534427,-0.08020575561523437,-9.580397943115234,1.209071838378906,-0.9765625,1.3427734375,-0.1220703125
1780564495.5384269,-0.06584054565429687,-9.591171850585937,1.22583125,-0.9765625,0.30517578125,0.30517578125
1780564495.5424268,-0.033518823242187495,-9.589974749755859,1.216254443359375,-1.52587890625,0.30517578125,0.3662109375
1780564495.5464268,-0.02154781494140625,-9.575609539794922,1.1887211242675781,-1.708984375,-0.54931640625,0.42724609375
1780564495.5504267,-0.027533319091796873,-9.580397943115234,1.1731588134765625,-1.8310546875,-0.732421875,0.30517578125
1780564495.5544267,0.02154781494140625,-9.60793126220703,1.1384428894042968,-1.89208984375,-1.15966796875,0.6103515625
1780564495.5584266,0.01915361328125,-9.613916766357422,1.112106671142578,-1.708984375,-1.0986328125,0.42724609375
1780564495.5624266,0.02633621826171875,-9.597157354736327,1.083376251220703,-2.0751953125,-0.732421875,0.30517578125
1780564495.5664265,0.05985504150390625,-9.662997900390625,1.0977414611816405,-1.953125,-0.48828125,0.42724609375
1780564495.5704265,0.11013327636718749,-9.686939916992188,1.1372457885742187,-2.13623046875,-0.54931640625,0.3662109375
1780564495.5744264,0.1388636962890625,-9.713276135253906,1.1336544860839843,-2.01416015625,-0.48828125,0.06103515625
1780564495.5784264,0.15562310791015624,-9.73602105102539,1.158793603515625,-2.01416015625,-0.48828125,-0.244140625
1780564495.5824263,0.17836802368164062,-9.781510882568359,1.1528080993652343,-1.953125,-0.3662109375,-0.54931640625
1780564495.5864263,0.17477672119140625,-9.77432827758789,1.139639990234375,-1.52587890625,-0.6103515625,-0.42724609375
1780564495.5904262,0.1388636962890625,-9.739612353515625,1.1575965026855468,-1.77001953125,-0.42724609375,-0.48828125
1780564495.5944262,0.1388636962890625,-9.745597857666015,1.1659762084960936,-1.40380859375,-0.244140625,-0.3662109375
1780564495.598426,0.14484920043945312,-9.767145672607422,1.2030863342285156,-1.3427734375,-0.1220703125,-0.42724609375
1780564495.602426,0.15442600708007811,-9.777919580078125,1.1839327209472656,-1.46484375,0.06103515625,-0.42724609375
1780564495.606426,0.181959326171875,-9.785102185058593,1.1851298217773436,-1.28173828125,-0.1220703125,-0.48828125
1780564495.610426,0.17836802368164062,-9.80665,1.2078747375488281,-1.5869140625,-0.18310546875,-0.48828125
1780564495.614426,0.16998831787109375,-9.819818109130859,1.1851298217773436,-1.46484375,-0.1220703125,-0.54931640625
1780564495.6184258,0.19632453613281248,-9.82580361328125,1.1743559143066407,-1.0986328125,-0.18310546875,-0.67138671875
1780564495.6224258,0.2166752502441406,-9.83777462158203,1.1528080993652343,-1.0986328125,-0.30517578125,-0.91552734375
1780564495.6264257,0.20829554443359374,-9.85692823486328,1.139639990234375,-1.0986328125,-0.3662109375,-1.03759765625
1780564495.6304257,0.19393033447265623,-9.843760125732421,1.1228805786132812,-0.67138671875,-0.06103515625,-1.28173828125
1780564495.6344256,0.16879121704101563,-9.836577520751952,1.1324573852539062,-0.8544921875,0.30517578125,-1.40380859375
1780564495.6384256,0.17477672119140625,-9.842563024902343,1.1145008728027344,-0.244140625,0.6103515625,-1.3427734375
1780564495.6424255,0.1484405029296875,-9.840168823242188,1.1073182678222655,0.1220703125,0.732421875,-1.40380859375
1780564495.6464255,0.12808978881835936,-9.822212310791015,1.120486376953125,0.6103515625,1.15966796875,-1.0986328125
1780564495.6504254,0.09217676391601562,-9.779116680908203,1.1109095703125,0.6103515625,1.5869140625,-0.9765625
1780564495.6544254,0.11013327636718749,-9.767145672607422,1.1133037719726562,0.91552734375,1.5869140625,-0.6103515625
1780564495.6584253,0.07781155395507812,-9.751583361816406,1.139639990234375,1.220703125,1.708984375,-0.48828125
1780564495.6624253,0.05746083984375,-9.70968483276367,1.139639990234375,1.0986328125,1.64794921875,0.06103515625
1780564495.6664252,0.06823474731445311,-9.67137760620117,1.1563994018554686,1.28173828125,1.40380859375,0.30517578125
1780564495.6704252,0.08259995727539061,-9.682151513671874,1.1623849060058593,0.9765625,1.0986328125,0.48828125
1780564495.6744251,0.07422025146484375,-9.661800799560547,1.1731588134765625,0.732421875,0.91552734375,0.48828125
1780564495.678425,0.09457096557617187,-9.652223992919922,1.1563994018554686,0.91552734375,0.54931640625,0.67138671875
1780564495.682425,0.11013327636718749,-9.641450085449218,1.16837041015625,0.244140625,0.244140625,0.54931640625
1780564495.686425,0.1352723937988281,-9.631873278808593,1.1540052001953125,0.3662109375,0.1220703125,0.6103515625
1780564495.690425,0.1484405029296875,-9.641450085449218,1.1372457885742187,0.1220703125,-0.30517578125,0.30517578125
1780564495.6944249,0.16280571289062498,-9.655815295410155,1.121683477783203,-0.244140625,0.1220703125,0.1220703125
1780564495.6984248,0.14724340209960937,-9.662997900390625,1.1156979736328125,-0.42724609375,0.1220703125,0.0
1780564495.7024248,0.16280571289062498,-9.708487731933593,1.1061211669921875,-0.732421875,0.42724609375,-0.30517578125
1780564495.7064247,0.15322890625,-9.704896429443359,1.0965443603515623,-0.6103515625,0.79345703125,-0.42724609375
1780564495.7104247,0.14245499877929688,-9.715670336914062,1.083376251220703,-0.6103515625,0.732421875,-0.9765625
1780564495.7144246,0.12210428466796874,-9.712079034423828,1.0857704528808594,-0.54931640625,1.3427734375,-0.9765625
1780564495.7184246,0.14006079711914063,-9.698910925292969,1.0953472595214844,-0.3662109375,1.15966796875,-0.9765625
1780564495.7224245,0.12569558715820311,-9.704896429443359,1.1145008728027344,-0.30517578125,1.8310546875,-1.0986328125
1780564495.7264245,0.1149216796875,-9.72285294189453,1.131260284423828,-0.3662109375,1.77001953125,-0.8544921875
1780564495.7304244,0.07900865478515624,-9.698910925292969,1.1324573852539062,-0.1220703125,2.01416015625,-0.79345703125
1780564495.7344244,0.05386953735351562,-9.692925421142577,1.1552023010253905,-0.1220703125,2.0751953125,-0.67138671875
1780564495.7384243,0.023942016601562498,-9.690531219482422,1.140837091064453,0.18310546875,2.13623046875,-0.48828125
1780564495.7424242,0.034715924072265626,-9.677363110351562,1.1456254943847655,0.54931640625,1.708984375,-0.244140625
1780564495.7464242,0.02633621826171875,-9.698910925292969,1.1767501159667968,0.48828125,1.77001953125,0.1220703125
1780564495.7504241,0.001197100830078125,-9.664195001220703,1.158793603515625,0.18310546875,1.8310546875,0.42724609375
1780564495.754424,-0.0143652099609375,-9.676166009521484,1.149216796875,0.6103515625,1.46484375,0.67138671875
1780564495.758424,-0.033518823242187495,-9.637858782958984,1.1851298217773436,0.54931640625,1.15966796875,0.91552734375
1780564495.762424,-0.0143652099609375,-9.652223992919922,1.1875240234375,0.79345703125,0.9765625,1.15966796875
1780564495.766424,0.0,-9.661800799560547,1.1540052001953125,0.79345703125,0.732421875,1.15966796875
1780564495.770424,0.0047884033203125,-9.667786303710937,1.13006318359375,0.54931640625,0.244140625,1.15966796875
1780564495.7744238,0.03950432739257812,-9.660603698730467,1.1228805786132812,0.30517578125,-0.06103515625,1.40380859375
1780564495.7784238,0.07781155395507812,-9.649829791259766,1.1013327636718748,0.06103515625,-0.3662109375,1.0986328125
1780564495.7824237,0.06584054565429687,-9.649829791259766,1.1013327636718748,-0.06103515625,-0.732421875,0.91552734375
1780564495.7864237,0.1149216796875,-9.655815295410155,1.0869675537109373,-0.1220703125,-0.67138671875,0.732421875
1780564495.7904236,0.15083470458984374,-9.677363110351562,1.0797849487304687,-0.54931640625,-0.9765625,0.48828125
1780564495.7944236,0.143652099609375,-9.668983404541015,1.0690110412597655,-0.732421875,-0.6103515625,0.1220703125
1780564495.7984235,0.15562310791015624,-9.680954412841796,1.0666168395996094,-1.0986328125,-0.732421875,-0.244140625
1780564495.8024235,0.15322890625,-9.70968483276367,1.064222637939453,-1.3427734375,-0.30517578125,-0.6103515625
1780564495.8064234,0.19153613281249998,-9.727641345214844,1.0474632263183594,-1.0986328125,-0.42724609375,-0.732421875
1780564495.8104234,0.17238251953125,-9.753977563476562,1.0773907470703123,-1.3427734375,0.0,-0.8544921875
1780564495.8144233,0.18914193115234373,-9.78629928588867,1.064222637939453,-1.03759765625,0.42724609375,-0.79345703125
1780564495.8184233,0.16998831787109375,-9.79348189086914,1.1085153686523437,-0.9765625,0.79345703125,-0.9765625
1780564495.8224232,0.18076222534179687,-9.776722479248047,1.1348515869140625,-0.8544921875,0.91552734375,-0.9765625
1780564495.8264232,0.17118541870117188,-9.822212310791015,1.1540052001953125,-0.42724609375,0.91552734375,-0.79345703125
1780564495.830423,0.12330138549804687,-9.801861596679688,1.1647791076660157,-0.3662109375,1.15966796875,-0.8544921875
1780564495.834423,0.10414777221679687,-9.797073193359374,1.1982979309082031,-0.1220703125,1.0986328125,-0.8544921875
1780564495.838423,0.06823474731445311,-9.798270294189452,1.20667763671875,0.18310546875,0.91552734375,-0.67138671875
1780564495.842423,0.11013327636718749,-9.788693487548828,1.2006921325683593,0.244140625,0.79345703125,-0.732421875
1780564495.846423,0.08020575561523437,-9.764751470947266,1.1947066284179686,0.3662109375,0.6103515625,-0.18310546875
1780564495.8504229,0.08858546142578125,-9.757568865966796,1.2114660400390624,0.8544921875,0.3662109375,-0.06103515625
1780564495.8544228,0.055066638183593745,-9.740809454345703,1.209071838378906,1.03759765625,0.30517578125,0.244140625
1780564495.8584228,0.0430956298828125,-9.726444244384766,1.158793603515625,1.0986328125,-0.1220703125,0.6103515625
1780564495.8624227,0.04908113403320312,-9.750386260986328,1.1540052001953125,1.15966796875,-0.244140625,0.91552734375
1780564495.8664227,0.06464344482421874,-9.700108026123047,1.1336544860839843,1.0986328125,-0.54931640625,1.03759765625
1780564495.8704226,0.09816226806640624,-9.6917283203125,1.112106671142578,1.0986328125,-1.03759765625,0.9765625
1780564495.8744226,0.1149216796875,-9.69771382446289,1.1073182678222655,0.8544921875,-0.79345703125,0.9765625
1780564495.8784225,0.1388636962890625,-9.683348614501952,1.0977414611816405,0.732421875,-1.28173828125,1.0986328125
1780564495.8824224,0.1867477294921875,-9.65940659790039,1.0905588562011719,0.79345703125,-1.220703125,0.9765625
1780564495.8864224,0.18076222534179687,-9.683348614501952,1.092953057861328,0.42724609375,-1.0986328125,0.67138671875
1780564495.8904223,0.19632453613281248,-9.692925421142577,1.0881646545410155,0.42724609375,-0.9765625,0.30517578125
1780564495.8944223,0.21787235107421873,-9.727641345214844,1.0917559570312498,0.1220703125,-0.91552734375,0.1220703125
1780564495.8984222,0.22385785522460935,-9.730035546875,1.0941501586914062,-0.1220703125,-0.91552734375,-0.06103515625
1780564495.9024222,0.21906945190429686,-9.706093530273437,1.112106671142578,-0.06103515625,-0.54931640625,-0.18310546875
1780564495.9064221,0.22744915771484372,-9.688137017822266,1.1133037719726562,-0.1220703125,-0.48828125,-0.54931640625
1780564495.910422,0.21188684692382811,-9.702502227783203,1.1192892761230469,0.0,-0.18310546875,-0.91552734375
1780564495.914422,0.22266075439453123,-9.6917283203125,1.1156979736328125,-0.18310546875,-0.06103515625,-0.9765625
1780564495.918422,0.22505495605468748,-9.707290631103515,1.13006318359375,-0.244140625,0.1220703125,-1.28173828125
1780564495.922422,0.21188684692382811,-9.667786303710937,1.140837091064453,-0.30517578125,0.3662109375,-1.220703125
1780564495.9264219,0.181959326171875,-9.65940659790039,1.1372457885742187,-0.244140625,0.79345703125,-1.40380859375
1780564495.9304218,0.15562310791015624,-9.631873278808593,1.1372457885742187,-0.244140625,0.79345703125,-1.46484375
1780564495.9344218,0.14245499877929688,-9.651026892089844,1.1372457885742187,-0.244140625,0.9765625,-1.220703125
1780564495.9384217,0.13766659545898435,-9.641450085449218,1.1324573852539062,-0.30517578125,0.8544921875,-1.28173828125
1780564495.9424217,0.10893617553710937,-9.609128363037108,1.1480196960449218,-0.18310546875,1.15966796875,-0.8544921875
1780564495.9464216,0.11252747802734374,-9.606734161376952,1.1552023010253905,-0.3662109375,0.732421875,-0.3662109375
1780564495.9504216,0.09576806640624999,-9.613916766357422,1.1444283935546875,-0.18310546875,0.42724609375,-0.06103515625
1780564495.9544215,0.08499415893554688,-9.611522564697266,1.1324573852539062,-0.42724609375,0.06103515625,0.244140625
1780564495.9584215,0.105344873046875,-9.668983404541015,1.1456254943847655,-0.48828125,0.18310546875,0.3662109375
1780564495.9624214,0.11611878051757812,-9.648632690429688,1.1192892761230469,-0.54931640625,0.1220703125,0.79345703125
1780564495.9664214,0.1197100830078125,-9.651026892089844,1.1156979736328125,-0.3662109375,-0.1220703125,1.03759765625
1780564495.9704213,0.11611878051757812,-9.67856021118164,1.1001356628417969,-0.244140625,0.18310546875,1.15966796875
1780564495.9744213,0.12090718383789062,-9.686939916992188,1.1037269653320312,-0.30517578125,0.0,1.03759765625
1780564495.9784212,0.12090718383789062,-9.686939916992188,1.1037269653320312,-0.30517578125,0.0,1.03759765625
1780564495.9824212,0.143652099609375,-9.677363110351562,1.071405242919922,0.0,0.06103515625,1.15966796875
1780564495.986421,0.14125789794921875,-9.701305126953125,1.0869675537109373,-0.1220703125,0.48828125,0.79345703125
1780564495.990421,0.15203180541992187,-9.727641345214844,1.0857704528808594,-0.244140625,0.67138671875,0.9765625
1780564495.994421,0.16041151123046873,-9.6917283203125,1.073799444580078,-0.244140625,0.42724609375,1.03759765625
1780564495.998421,0.18315642700195311,-9.75517466430664,1.102529864501953,-0.244140625,0.54931640625,0.6103515625
1780564496.002421,0.17118541870117188,-9.751583361816406,1.0965443603515623,-0.42724609375,0.48828125,0.244140625
1780564496.0064209,0.2059013427734375,-9.791087689208984,1.131260284423828,-0.42724609375,0.6103515625,0.18310546875
1780564496.0104208,0.22744915771484372,-9.759963067626952,1.1276689819335937,-0.244140625,0.79345703125,-0.3662109375
1780564496.0144207,0.23582886352539062,-9.781510882568359,1.1109095703125,-0.48828125,0.67138671875,-0.48828125
1780564496.0184207,0.23582886352539062,-9.781510882568359,1.1109095703125,-0.48828125,0.67138671875,-0.48828125
1780564496.0224206,0.1927332336425781,-9.80665,1.1097124694824219,-0.244140625,1.0986328125,-0.6103515625
1780564496.0264206,0.19393033447265623,-9.807847100830077,1.1037269653320312,-0.18310546875,1.220703125,-0.732421875
1780564496.0304205,0.14245499877929688,-9.794678991699218,1.1037269653320312,0.244140625,1.8310546875,-1.03759765625
1780564496.0344205,0.12090718383789062,-9.832986218261718,1.0881646545410155,0.67138671875,2.197265625,-0.91552734375
1780564496.0384204,0.10773907470703124,-9.79348189086914,1.112106671142578,1.0986328125,2.197265625,-0.732421875
1780564496.0424204,0.08140285644531249,-9.770736975097655,1.1264718811035155,1.3427734375,2.197265625,-0.48828125
1780564496.0464203,0.07062894897460938,-9.764751470947266,1.0905588562011719,1.28173828125,2.44140625,-0.48828125
1780564496.0504203,0.040701428222656245,-9.738415252685547,1.1097124694824219,1.52587890625,2.13623046875,0.06103515625
1780564496.0544202,0.05985504150390625,-9.706093530273437,1.1037269653320312,1.3427734375,2.13623046875,0.06103515625
1780564496.0584202,0.047884033203124995,-9.702502227783203,1.1468225952148436,1.40380859375,1.52587890625,0.42724609375
1780564496.0624201,0.013168109130859374,-9.679757312011718,1.1563994018554686,1.40380859375,1.220703125,0.9765625
1780564496.06642,0.025139117431640625,-9.690531219482422,1.1348515869140625,1.46484375,0.91552734375,1.03759765625
1780564496.07042,0.037110125732421874,-9.696516723632811,1.150413897705078,1.28173828125,0.67138671875,1.46484375
1780564496.07442,0.031124621582031248,-9.662997900390625,1.1623849060058593,1.220703125,0.30517578125,1.46484375
1780564496.07842,0.076614453125,-9.657012396240233,1.1372457885742187,1.03759765625,0.3662109375,1.8310546875
1780564496.0824199,0.10295067138671875,-9.658209497070311,1.1240776794433593,1.03759765625,0.3662109375,1.89208984375
1780564496.0864198,0.0718260498046875,-9.618705169677733,1.1276689819335937,0.91552734375,0.3662109375,1.953125
1780564496.0904198,0.0909796630859375,-9.64623848876953,1.120486376953125,0.91552734375,0.3662109375,2.13623046875
1780564496.0944197,0.10175357055664062,-9.645041387939452,1.0989385620117187,0.8544921875,0.30517578125,1.8310546875
1780564496.0984197,0.10893617553710937,-9.672574707031249,1.112106671142578,1.03759765625,0.48828125,1.77001953125
1780564496.1024196,0.11252747802734374,-9.636661682128906,1.1133037719726562,0.8544921875,0.8544921875,1.708984375
1780564496.1064196,0.12449848632812499,-9.60194575805664,1.1073182678222655,0.79345703125,1.03759765625,1.46484375
1780564496.1104195,0.14724340209960937,-9.624690673828125,1.0857704528808594,0.732421875,1.03759765625,1.28173828125
1780564496.1144195,0.13287819213867186,-9.609128363037108,1.0785878479003905,0.732421875,1.03759765625,1.0986328125
1780564496.1184194,0.10175357055664062,-9.605537060546874,1.0821791503906248,0.42724609375,1.03759765625,1.03759765625
1780564496.1224194,0.09816226806640624,-9.591171850585937,1.0821791503906248,0.30517578125,1.3427734375,0.6103515625
1780564496.1264193,0.10175357055664062,-9.592368951416015,1.0893617553710937,0.0,1.0986328125,0.6103515625
1780564496.1304193,0.07900865478515624,-9.595960253906249,1.1049240661621094,-0.06103515625,1.220703125,0.54931640625
1780564496.1344192,0.08259995727539061,-9.628281976318359,1.1348515869140625,-0.42724609375,1.0986328125,0.6103515625
1780564496.1384192,0.06464344482421874,-9.623493572998047,1.140837091064453,-0.67138671875,0.91552734375,0.54931640625
1780564496.142419,0.047884033203124995,-9.623493572998047,1.1360486877441405,-0.54931640625,0.9765625,0.54931640625
1780564496.146419,0.04668693237304687,-9.643844287109374,1.120486376953125,-0.79345703125,0.91552734375,0.79345703125
1780564496.150419,0.029927520751953124,-9.67137760620117,1.1336544860839843,-0.732421875,0.8544921875,0.91552734375
1780564496.154419,0.0526724365234375,-9.67137760620117,1.1456254943847655,-0.42724609375,0.8544921875,1.28173828125
1780564496.158419,0.033518823242187495,-9.724050042724608,1.139639990234375,-0.3662109375,0.732421875,1.220703125
1780564496.1624188,0.017956512451171875,-9.727641345214844,1.1480196960449218,0.06103515625,0.54931640625,1.708984375
1780564496.1664188,0.02633621826171875,-9.731232647705077,1.1635820068359375,0.3662109375,0.67138671875,1.77001953125
1780564496.1704187,0.06703764648437499,-9.769539874267577,1.1863269226074218,0.67138671875,0.6103515625,1.953125
1780564496.1744187,0.09816226806640624,-9.7683427734375,1.197100830078125,0.67138671875,0.42724609375,2.3193359375
1780564496.1784186,0.09816226806640624,-9.789890588378906,1.180341418457031,0.91552734375,0.6103515625,1.953125
1780564496.1824186,0.09457096557617187,-9.756371765136718,1.1827356201171875,1.3427734375,0.54931640625,1.89208984375
1780564496.1864185,0.11013327636718749,-9.744400756835937,1.1839327209472656,0.91552734375,0.67138671875,1.64794921875
1780564496.1904185,0.1005564697265625,-9.726444244384766,1.1623849060058593,1.28173828125,0.48828125,1.3427734375
1780564496.1944184,0.10175357055664062,-9.734823950195311,1.16837041015625,1.15966796875,0.732421875,1.03759765625
1780564496.1984184,0.09217676391601562,-9.726444244384766,1.1372457885742187,0.8544921875,0.91552734375,0.54931640625
1780564496.2024183,0.08858546142578125,-9.715670336914062,1.1264718811035155,0.8544921875,0.8544921875,0.244140625
1780564496.2064183,0.08140285644531249,-9.708487731933593,1.1264718811035155,0.67138671875,0.8544921875,-0.54931640625
1780564496.2104182,0.055066638183593745,-9.665392102050781,1.1348515869140625,0.3662109375,0.91552734375,-0.9765625
1780564496.2144182,0.027533319091796873,-9.635464581298828,1.1635820068359375,0.30517578125,0.79345703125,-1.220703125
1780564496.2184181,0.040701428222656245,-9.73602105102539,1.1767501159667968,-0.18310546875,0.48828125,-1.28173828125
1780564496.222418,0.05746083984375,-9.78031378173828,1.1647791076660157,0.06103515625,0.1220703125,-1.28173828125
1780564496.226418,0.031124621582031248,-9.730035546875,1.1575965026855468,0.06103515625,-0.48828125,-1.220703125
1780564496.230418,0.027533319091796873,-9.767145672607422,1.1552023010253905,0.1220703125,-0.42724609375,-0.3662109375
1780564496.234418,0.029927520751953124,-9.750386260986328,1.1540052001953125,0.91552734375,-0.79345703125,0.0
1780564496.2384179,0.00718260498046875,-9.773131176757811,1.1468225952148436,0.91552734375,-0.30517578125,0.732421875
1780564496.2424178,0.017956512451171875,-9.783905084228515,1.1288660827636718,1.28173828125,0.0,1.3427734375
1780564496.2464178,0.055066638183593745,-9.815029705810547,1.0893617553710937,1.5869140625,-0.18310546875,1.5869140625
1780564496.2504177,0.07422025146484375,-9.86411083984375,1.0893617553710937,1.8310546875,-0.1220703125,2.197265625
1780564496.2544177,0.09816226806640624,-9.892841259765625,1.1264718811035155,2.01416015625,-0.1220703125,2.50244140625
1780564496.2584176,0.10175357055664062,-9.83178911743164,1.1372457885742187,2.25830078125,-0.06103515625,2.74658203125
1780564496.2624176,0.08259995727539061,-9.813832604980469,1.1444283935546875,2.685546875,-0.18310546875,2.74658203125
1780564496.2664175,0.07781155395507812,-9.771934075927733,1.1180921752929687,2.86865234375,0.30517578125,2.50244140625
1780564496.2704175,0.07062894897460938,-9.753977563476562,1.159990704345703,2.3193359375,0.6103515625,2.25830078125
1780564496.2744174,0.11372457885742186,-9.752780462646484,1.1623849060058593,2.3193359375,0.244140625,1.64794921875
1780564496.2784173,0.14484920043945312,-9.727641345214844,1.1875240234375,2.13623046875,-0.06103515625,1.40380859375
1780564496.2824173,0.1352723937988281,-9.6917283203125,1.2174515441894531,1.8310546875,-0.244140625,1.0986328125
1780564496.2864172,0.1592144104003906,-9.70968483276367,1.218648645019531,1.220703125,-0.3662109375,0.732421875
1780564496.2904172,0.12210428466796874,-9.655815295410155,1.2282254516601563,1.40380859375,-0.79345703125,0.3662109375
1780564496.2944171,0.08379705810546874,-9.562441430664062,1.2425906616210938,0.91552734375,-0.1220703125,-0.1220703125
1780564496.298417,0.11611878051757812,-9.670180505371093,1.1911153259277343,0.42724609375,0.30517578125,-0.48828125
1780564496.302417,0.143652099609375,-9.72285294189453,1.2006921325683593,0.91552734375,0.18310546875,-0.79345703125
1780564496.306417,0.15442600708007811,-9.715670336914062,1.158793603515625,0.3662109375,0.6103515625,-0.732421875
1780564496.310417,0.1388636962890625,-9.706093530273437,1.2294225524902342,1.3427734375,0.54931640625,-0.30517578125
1780564496.314417,0.11372457885742186,-9.73602105102539,1.158793603515625,1.40380859375,1.0986328125,0.1220703125
1780564496.3184168,0.11372457885742186,-9.660603698730467,1.1695675109863282,1.77001953125,1.40380859375,0.244140625
1780564496.3224168,0.08978256225585937,-9.635464581298828,1.177947216796875,1.953125,1.89208984375,1.03759765625
1780564496.3264167,0.06584054565429687,-9.642647186279296,1.120486376953125,1.953125,2.197265625,1.52587890625
1780564496.3304167,0.1197100830078125,-9.694122521972655,1.1097124694824219,2.0751953125,2.0751953125,1.89208984375
1780564496.3344166,0.07422025146484375,-9.660603698730467,1.139639990234375,1.5869140625,2.01416015625,2.01416015625
1780564496.3384166,0.03950432739257812,-9.542090716552734,1.2042834350585936,1.89208984375,2.13623046875,1.8310546875
1780564496.3424165,0.031124621582031248,-9.574412438964844,1.1540052001953125,1.40380859375,2.25830078125,1.77001953125
1780564496.3464165,0.04908113403320312,-9.624690673828125,1.1611878051757811,1.28173828125,1.708984375,1.708984375
1780564496.3504164,0.023942016601562498,-9.521740002441407,1.1827356201171875,0.732421875,1.5869140625,1.15966796875
1780564496.3544164,0.033518823242187495,-9.515754498291015,1.1815385192871093,0.06103515625,1.40380859375,1.0986328125
1780564496.3584163,0.044292730712890624,-9.534908111572266,1.1552023010253905,-0.1220703125,0.42724609375,0.732421875
1780564496.3624163,0.02154781494140625,-9.543287817382812,1.1516109985351561,-1.03759765625,0.42724609375,0.48828125
1780564496.3664162,0.0526724365234375,-9.533711010742186,1.1863269226074218,-1.3427734375,-0.18310546875,0.0
1780564496.3704162,0.0526724365234375,-9.558850128173827,1.1623849060058593,-1.40380859375,-0.48828125,-0.48828125
1780564496.374416,0.034715924072265626,-9.566032733154296,1.1540052001953125,-1.46484375,-0.42724609375,-0.6103515625
1780564496.378416,0.015562310791015624,-9.635464581298828,1.1336544860839843,-2.197265625,-0.244140625,-0.8544921875
1780564496.382416,-0.00239420166015625,-9.619902270507811,1.159990704345703,-1.77001953125,-0.6103515625,-1.220703125
1780564496.386416,-0.0430956298828125,-9.63307037963867,1.1288660827636718,-1.8310546875,0.42724609375,-1.3427734375
1780564496.390416,-0.016759411621093748,-9.719261639404296,1.1540052001953125,-1.5869140625,0.244140625,-1.0986328125
1780564496.3944159,-0.011971008300781249,-9.773131176757811,1.1336544860839843,-1.40380859375,0.0,-0.732421875
1780564496.3984158,-0.033518823242187495,-9.732429748535155,1.1851298217773436,-1.03759765625,0.1220703125,-0.1220703125
1780564496.4024158,-0.044292730712890624,-9.72285294189453,1.20667763671875,-0.48828125,0.1220703125,0.54931640625
1780564496.4064157,-0.06703764648437499,-9.775525378417969,1.1707646118164061,0.1220703125,-0.3662109375,1.220703125
1780564496.4104156,-0.06584054565429687,-9.777919580078125,1.158793603515625,0.3662109375,-0.244140625,2.38037109375
1780564496.4144156,-0.1005564697265625,-9.724050042724608,1.1516109985351561,0.732421875,-0.6103515625,3.0517578125
1780564496.4184155,-0.08978256225585937,-9.702502227783203,1.1432312927246093,0.79345703125,-0.67138671875,4.0283203125
1780564496.4224155,-0.08259995727539061,-9.739612353515625,1.121683477783203,1.03759765625,-0.79345703125,4.39453125
1780564496.4264154,-0.06344634399414062,-9.710881933593749,1.1336544860839843,1.15966796875,-1.15966796875,4.7607421875
1780564496.4304154,-0.04908113403320312,-9.670180505371093,1.1516109985351561,0.9765625,-0.8544921875,5.0048828125
1780564496.4344153,-0.044292730712890624,-9.661800799560547,1.159990704345703,0.91552734375,-1.3427734375,4.82177734375
1780564496.4384153,-0.02633621826171875,-9.672574707031249,1.1276689819335937,0.732421875,-1.52587890625,4.82177734375
1780564496.4424152,-0.040701428222656245,-9.655815295410155,1.1372457885742187,0.30517578125,-2.197265625,4.57763671875
1780564496.4464152,-0.023942016601562498,-9.616310968017578,1.1731588134765625,0.30517578125,-2.3193359375,4.150390625
1780564496.4504151,-0.015562310791015624,-9.676166009521484,1.2078747375488281,-0.30517578125,-2.44140625,3.7841796875
1780564496.454415,0.016759411621093748,-9.726444244384766,1.2054805358886718,0.0,-2.86865234375,2.86865234375
1780564496.458415,0.01915361328125,-9.745597857666015,1.1575965026855468,-0.18310546875,-2.9296875,2.44140625
1780564496.462415,0.015562310791015624,-9.791087689208984,1.159990704345703,-0.244140625,-2.8076171875,1.3427734375
1780564496.466415,0.015562310791015624,-9.791087689208984,1.159990704345703,-0.244140625,-2.8076171875,1.3427734375
1780564496.4704149,0.027533319091796873,-9.798270294189452,1.1480196960449218,0.1220703125,-2.38037109375,0.54931640625
1780564496.4744148,0.034715924072265626,-9.74200655517578,1.112106671142578,0.0,-2.0751953125,0.06103515625
1780564496.4784148,0.020350714111328123,-9.78629928588867,1.1324573852539062,0.244140625,-2.01416015625,-0.8544921875
1780564496.4824147,0.07541735229492187,-9.79946739501953,1.1635820068359375,0.0,-2.25830078125,-1.3427734375
1780564496.4864147,0.07302315063476562,-9.757568865966796,1.2078747375488281,0.244140625,-1.89208984375,-1.3427734375
1780564496.4904146,0.09457096557617187,-9.76116016845703,1.1959037292480468,-0.06103515625,-1.8310546875,-1.708984375
1780564496.4944146,0.11133037719726561,-9.702502227783203,1.1887211242675781,0.244140625,-2.0751953125,-1.953125
1780564496.4984145,0.07302315063476562,-9.673771807861328,1.2054805358886718,0.244140625,-1.77001953125,-1.5869140625
1780564496.5024145,0.07541735229492187,-9.71686743774414,1.2198457458496093,0.48828125,-1.5869140625,-1.28173828125
1780564496.5064144,0.06584054565429687,-9.679757312011718,1.2054805358886718,0.67138671875,-1.46484375,-1.03759765625
1780564496.5104144,0.020350714111328123,-9.688137017822266,1.209071838378906,0.67138671875,-1.40380859375,-0.54931640625
1780564496.5144143,0.05626373901367187,-9.694122521972655,1.236605157470703,1.03759765625,-1.40380859375,-0.18310546875
1780564496.5184143,0.0526724365234375,-9.690531219482422,1.2485761657714842,1.15966796875,-1.3427734375,0.244140625
1780564496.5224142,0.033518823242187495,-9.726444244384766,1.2473790649414063,1.5869140625,-1.28173828125,0.79345703125
1780564496.5264142,0.08020575561523437,-9.726444244384766,1.2030863342285156,1.77001953125,-1.77001953125,1.3427734375
1780564496.530414,0.08499415893554688,-9.718064538574218,1.2222399475097656,1.77001953125,-1.5869140625,1.52587890625
1780564496.534414,0.09457096557617187,-9.727641345214844,1.1863269226074218,1.77001953125,-1.5869140625,1.52587890625
1780564496.538414,0.11731588134765625,-9.721655841064452,1.1815385192871093,1.64794921875,-1.708984375,1.40380859375
1780564496.542414,0.1005564697265625,-9.71686743774414,1.1563994018554686,2.0751953125,-1.708984375,1.5869140625
1780564496.546414,0.07781155395507812,-9.726444244384766,1.1456254943847655,1.708984375,-1.28173828125,1.5869140625
1780564496.5504138,0.08259995727539061,-9.686939916992188,1.1647791076660157,1.8310546875,-1.15966796875,1.3427734375
1780564496.5544138,0.05746083984375,-9.672574707031249,1.177947216796875,1.52587890625,-0.9765625,1.28173828125
1780564496.5584137,0.07900865478515624,-9.657012396240233,1.1767501159667968,1.77001953125,-0.732421875,1.52587890625
1780564496.5624137,0.062249243164062495,-9.60793126220703,1.2102689392089843,1.3427734375,-0.732421875,1.52587890625
1780564496.5664136,0.07422025146484375,-9.628281976318359,1.2222399475097656,1.3427734375,-0.8544921875,1.3427734375
1780564496.5704136,0.08738836059570312,-9.634267480468749,1.2425906616210938,0.732421875,-1.28173828125,1.40380859375
1780564496.5744135,0.0718260498046875,-9.661800799560547,1.2677297790527342,0.732421875,-1.52587890625,1.40380859375
1780564496.5784135,0.08379705810546874,-9.613916766357422,1.303642803955078,0.48828125,-1.89208984375,1.52587890625
1780564496.5824134,0.086191259765625,-9.612719665527344,1.2832920898437499,0.3662109375,-1.708984375,1.64794921875
1780564496.5864134,0.09935936889648436,-9.661800799560547,1.274912384033203,0.30517578125,-2.0751953125,1.8310546875
1780564496.5904133,0.12689268798828124,-9.696516723632811,1.2497732666015624,0.6103515625,-1.953125,1.89208984375
1780564496.5944133,0.14006079711914063,-9.731232647705077,1.2054805358886718,0.30517578125,-1.52587890625,1.77001953125
1780564496.5984132,0.15682020874023436,-9.78031378173828,1.1575965026855468,0.79345703125,-1.28173828125,1.77001953125
1780564496.6024132,0.21188684692382811,-9.787496386718749,1.1575965026855468,1.03759765625,-0.67138671875,1.46484375
1780564496.6064131,0.1771709228515625,-9.719261639404296,1.1097124694824219,0.8544921875,0.3662109375,1.708984375
1780564496.610413,0.22026655273437498,-9.715670336914062,1.1288660827636718,0.732421875,0.732421875,1.40380859375
1780564496.614413,0.2549824768066406,-9.680954412841796,1.140837091064453,0.8544921875,1.220703125,1.52587890625
1780564496.618413,0.2166752502441406,-9.654618194580078,1.1815385192871093,0.6103515625,1.708984375,1.28173828125
1780564496.622413,0.2657563842773437,-9.629479077148437,1.2174515441894531,0.18310546875,2.0751953125,1.3427734375
1780564496.6264129,0.2813186950683594,-9.635464581298828,1.2593500732421874,-0.30517578125,2.13623046875,0.9765625
1780564496.6304128,0.27174188842773433,-9.605537060546874,1.2378022583007813,-0.67138671875,2.13623046875,0.732421875
1780564496.6344128,0.24181436767578124,-9.58279214477539,1.24498486328125,-1.46484375,2.0751953125,0.6103515625
1780564496.6384127,0.23702596435546874,-9.613916766357422,1.265335577392578,-1.953125,2.0751953125,0.54931640625
1780564496.6424127,0.2262520568847656,-9.668983404541015,1.2964601989746094,-2.01416015625,1.89208984375,0.18310546875
1780564496.6464126,0.21906945190429686,-9.728838446044922,1.2797007873535156,-2.197265625,2.13623046875,-0.06103515625
1780564496.6504126,0.20829554443359374,-9.759963067626952,1.2629413757324217,-2.50244140625,2.38037109375,-0.1220703125
1780564496.6544125,0.15322890625,-9.798270294189452,1.236605157470703,-1.89208984375,2.74658203125,-0.1220703125
1780564496.6584125,0.15322890625,-9.817423907470703,1.2018892333984375,-1.708984375,3.2958984375,-0.06103515625
1780564496.6624124,0.1304839904785156,-9.785102185058593,1.1528080993652343,-1.3427734375,3.60107421875,-0.1220703125
1780564496.6664124,0.10893617553710937,-9.80066449584961,1.1611878051757811,-1.40380859375,4.7607421875,0.54931640625
1780564496.6704123,0.08379705810546874,-9.848548529052733,1.1623849060058593,-1.03759765625,4.94384765625,0.79345703125
1780564496.6744123,0.058657940673828124,-9.809044201660155,1.1935095275878906,-0.3662109375,5.0048828125,0.8544921875
1780564496.6784122,0.05626373901367187,-9.81862100830078,1.2246341491699217,0.06103515625,5.4931640625,0.9765625
1780564496.6824121,0.031124621582031248,-9.821015209960937,1.2401964599609374,0.67138671875,5.37109375,1.220703125
1780564496.686412,0.02633621826171875,-9.83178911743164,1.2246341491699217,0.9765625,5.18798828125,1.46484375
1780564496.690412,0.003591302490234375,-9.791087689208984,1.2318167541503906,1.0986328125,4.94384765625,1.40380859375
1780564496.694412,-0.031124621582031248,-9.721655841064452,1.236605157470703,1.15966796875,4.5166015625,1.46484375
1780564496.698412,-0.011971008300781249,-9.70369932861328,1.2425906616210938,1.03759765625,4.39453125,1.220703125
1780564496.702412,-0.03591302490234375,-9.665392102050781,1.2342109558105467,0.732421875,3.96728515625,1.0986328125
1780564496.7064118,-0.07302315063476562,-9.67856021118164,1.24498486328125,0.244140625,3.60107421875,1.0986328125
1780564496.7104118,-0.0526724365234375,-9.645041387939452,1.2665326782226562,0.244140625,3.41796875,0.8544921875
1780564496.7144117,-0.04189852905273437,-9.662997900390625,1.2773065856933592,-0.06103515625,3.23486328125,0.54931640625
1780564496.7184117,-0.0430956298828125,-9.690531219482422,1.2665326782226562,-0.06103515625,2.38037109375,0.30517578125
1780564496.7224116,-0.0430956298828125,-9.682151513671874,1.2485761657714842,-0.30517578125,2.38037109375,0.0
1780564496.7264116,-0.05985504150390625,-9.64025298461914,1.2246341491699217,-0.6103515625,2.01416015625,-0.54931640625
1780564496.7304115,-0.055066638183593745,-9.603142858886718,1.209071838378906,-0.8544921875,1.953125,-0.79345703125
1780564496.7344115,-0.047884033203124995,-9.652223992919922,1.2042834350585936,-1.28173828125,1.708984375,-1.03759765625
1780564496.7384114,-0.058657940673828124,-9.631873278808593,1.22583125,-1.220703125,1.52587890625,-1.220703125
1780564496.7424114,-0.03950432739257812,-9.593566052246093,1.2042834350585936,-1.40380859375,1.0986328125,-1.64794921875
1780564496.7464113,-0.01915361328125,-9.623493572998047,1.1863269226074218,-1.77001953125,1.15966796875,-1.708984375
1780564496.7504113,-0.00239420166015625,-9.668983404541015,1.1611878051757811,-1.8310546875,0.8544921875,-1.77001953125
1780564496.7544112,-0.04668693237304687,-9.662997900390625,1.1384428894042968,-1.89208984375,0.732421875,-2.197265625
1780564496.7584112,-0.06943184814453125,-9.71686743774414,1.177947216796875,-2.01416015625,0.9765625,-2.13623046875
1780564496.762411,-0.07900865478515624,-9.70369932861328,1.1851298217773436,-1.5869140625,0.732421875,-2.197265625
1780564496.766411,-0.0718260498046875,-9.70369932861328,1.1575965026855468,-1.46484375,0.8544921875,-2.197265625
1780564496.770411,-0.04548983154296875,-9.708487731933593,1.16837041015625,-1.220703125,0.79345703125,-1.708984375
1780564496.774411,-0.09217676391601562,-9.668983404541015,1.1647791076660157,-1.220703125,0.91552734375,-1.46484375
1780564496.778411,-0.10893617553710937,-9.641450085449218,1.1719617126464843,-0.9765625,0.732421875,-1.28173828125
1780564496.7824109,-0.12449848632812499,-9.634267480468749,1.1731588134765625,-0.79345703125,0.732421875,-0.8544921875
1780564496.7864108,-0.11731588134765625,-9.67137760620117,1.1695675109863282,-0.91552734375,0.48828125,-0.42724609375
1780564496.7904108,-0.12569558715820311,-9.661800799560547,1.199495031738281,-0.48828125,0.244140625,-0.18310546875
1780564496.7944107,-0.12330138549804687,-9.625887774658203,1.2054805358886718,-0.67138671875,0.06103515625,0.30517578125
1780564496.7984107,-0.13646949462890623,-9.595960253906249,1.2018892333984375,-0.48828125,-0.3662109375,0.67138671875
1780564496.8024106,-0.1592144104003906,-9.606734161376952,1.197100830078125,-0.244140625,-0.91552734375,1.46484375
1780564496.8064106,-0.16759411621093748,-9.588777648925781,1.1947066284179686,-0.30517578125,-0.8544921875,1.64794921875
1780564496.8104105,-0.11013327636718749,-9.585186346435547,1.1839327209472656,-0.30517578125,-1.3427734375,2.13623046875
1780564496.8144104,-0.06823474731445311,-9.637858782958984,1.139639990234375,-0.3662109375,-1.46484375,1.77001953125
1780564496.8184104,-0.03591302490234375,-9.63307037963867,1.1288660827636718,-0.54931640625,-1.708984375,2.01416015625
1780564496.8224103,-0.028730419921875,-9.665392102050781,1.0989385620117187,-1.03759765625,-1.953125,1.46484375
1780564496.8264103,-0.020350714111328123,-9.643844287109374,1.1049240661621094,-1.46484375,-1.8310546875,1.15966796875
1780564496.8304102,-0.020350714111328123,-9.643844287109374,1.1049240661621094,-1.46484375,-1.8310546875,1.15966796875
1780564496.8344102,0.0143652099609375,-9.564835632324218,1.102529864501953,-1.3427734375,-1.708984375,0.54931640625
1780564496.8384101,0.07062894897460938,-9.599551556396484,1.0917559570312498,-1.46484375,-1.5869140625,0.54931640625
1780564496.84241,0.062249243164062495,-9.652223992919922,1.045069024658203,-1.708984375,-1.46484375,-0.18310546875
1780564496.84641,0.07062894897460938,-9.668983404541015,1.035492218017578,-1.64794921875,-1.15966796875,-0.6103515625
1780564496.85041,0.12449848632812499,-9.662997900390625,1.064222637939453,-2.0751953125,-0.48828125,-1.03759765625
1780564496.85441,0.12090718383789062,-9.69771382446289,1.0965443603515623,-2.01416015625,-0.48828125,-1.52587890625
1780564496.85841,0.14604630126953125,-9.701305126953125,1.0749965454101562,-2.3193359375,-0.18310546875,-1.89208984375
1780564496.8624098,0.12090718383789062,-9.64025298461914,1.0941501586914062,-2.3193359375,0.0,-2.13623046875
1780564496.8664098,0.11013327636718749,-9.64623848876953,1.1372457885742187,-2.44140625,0.18310546875,-2.197265625
1780564496.8704097,0.10893617553710937,-9.649829791259766,1.13006318359375,-2.25830078125,0.6103515625,-2.62451171875
1780564496.8744097,0.08259995727539061,-9.600748657226562,1.131260284423828,-2.3193359375,0.3662109375,-2.86865234375
1780564496.8784096,0.0383072265625,-9.604339959716796,1.150413897705078,-2.44140625,0.79345703125,-2.86865234375
1780564496.8824096,0.029927520751953124,-9.580397943115234,1.1516109985351561,-2.25830078125,0.732421875,-2.62451171875
1780564496.8864095,0.00718260498046875,-9.570821136474608,1.1623849060058593,-2.197265625,0.8544921875,-2.38037109375
1780564496.8904095,-0.0047884033203125,-9.546879119873047,1.1623849060058593,-2.25830078125,0.732421875,-1.8310546875
1780564496.8944094,-0.033518823242187495,-9.557653027343749,1.139639990234375,-2.38037109375,1.03759765625,-1.46484375
1780564496.8984094,-0.04548983154296875,-9.597157354736327,1.1707646118164061,-2.25830078125,0.8544921875,-0.6103515625
1780564496.9024093,-0.08499415893554688,-9.64025298461914,1.2054805358886718,-1.77001953125,0.8544921875,0.9765625
1780564496.9064093,-0.07900865478515624,-9.702502227783203,1.2042834350585936,-1.28173828125,0.91552734375,2.01416015625
1780564496.9104092,-0.06584054565429687,-9.685742816162108,1.209071838378906,-1.03759765625,0.79345703125,2.685546875
1780564496.9144092,-0.033518823242187495,-9.718064538574218,1.2054805358886718,-0.54931640625,0.6103515625,3.41796875
1780564496.918409,-0.022744915771484374,-9.739612353515625,1.2138602416992186,-0.18310546875,0.30517578125,3.84521484375
1780564496.922409,-0.010773907470703125,-9.759963067626952,1.189918225097656,-0.3662109375,0.244140625,4.21142578125
1780564496.926409,0.03232172241210937,-9.765948571777344,1.1623849060058593,-0.244140625,0.30517578125,4.57763671875
1780564496.930409,0.0430956298828125,-9.783905084228515,1.1731588134765625,-0.1220703125,0.6103515625,4.69970703125
1780564496.934409,0.04908113403320312,-9.809044201660155,1.150413897705078,-0.18310546875,0.42724609375,4.21142578125
1780564496.9384089,0.06703764648437499,-9.827000714111328,1.1719617126464843,-0.30517578125,0.67138671875,3.7841796875
1780564496.9424088,0.06584054565429687,-9.781510882568359,1.189918225097656,-0.1220703125,0.8544921875,3.5400390625
1780564496.9464087,0.09457096557617187,-9.79946739501953,1.218648645019531,-0.3662109375,0.67138671875,3.23486328125
1780564496.9504087,0.08379705810546874,-9.785102185058593,1.22583125,-0.42724609375,0.54931640625,2.9296875
1780564496.9544086,0.09816226806640624,-9.81862100830078,1.1887211242675781,-0.732421875,0.48828125,2.86865234375
1780564496.9584086,0.06823474731445311,-9.83777462158203,1.1731588134765625,-0.8544921875,0.244140625,2.197265625
1780564496.9624085,0.07900865478515624,-9.906009368896484,1.121683477783203,-0.54931640625,0.48828125,1.8310546875
1780564496.9664085,0.051475335693359374,-9.925162982177733,1.0953472595214844,-0.67138671875,0.91552734375,1.15966796875
1780564496.9704084,0.0526724365234375,-9.926360083007811,1.1013327636718748,-0.732421875,0.9765625,1.03759765625
1780564496.9744084,0.047884033203124995,-9.91438907470703,1.1456254943847655,-0.3662109375,1.3427734375,0.3662109375
1780564496.9784083,0.034715924072265626,-9.873687646484374,1.1755530151367186,-0.30517578125,1.0986328125,0.0
1780564496.9824083,0.022744915771484374,-9.821015209960937,1.197100830078125,-0.1220703125,1.15966796875,-0.54931640625
1780564496.9864082,-0.005985504150390624,-9.792284790039062,1.2210428466796874,-0.1220703125,0.8544921875,-0.67138671875
1780564496.9904082,-0.051475335693359374,-9.769539874267577,1.2018892333984375,0.1220703125,1.15966796875,-0.67138671875
1780564496.9944081,-0.058657940673828124,-9.732429748535155,1.2294225524902342,0.6103515625,0.79345703125,-0.54931640625
1780564496.998408,-0.086191259765625,-9.732429748535155,1.2234370483398436,0.42724609375,0.91552734375,-0.244140625
1780564497.002408,-0.09576806640624999,-9.725247143554688,1.2389993591308592,0.9765625,0.42724609375,-0.30517578125
1780564497.006408,-0.10295067138671875,-9.750386260986328,1.2222399475097656,1.28173828125,0.244140625,0.06103515625
1780564497.010408,-0.12330138549804687,-9.737218151855469,1.2174515441894531,1.220703125,0.48828125,0.67138671875
1780564497.0144079,-0.09337386474609374,-9.70369932861328,1.199495031738281,1.46484375,0.06103515625,1.03759765625
1780564497.0184078,-0.11133037719726561,-9.696516723632811,1.1863269226074218,1.15966796875,0.1220703125,1.220703125
1780564497.0224078,-0.09935936889648436,-9.682151513671874,1.1719617126464843,1.46484375,0.0,1.40380859375
1780564497.0264077,-0.09935936889648436,-9.634267480468749,1.20667763671875,1.3427734375,-0.1220703125,1.52587890625
1780564497.0304077,-0.04908113403320312,-9.67137760620117,1.1791443176269532,0.91552734375,-0.1220703125,1.8310546875
1780564497.0344076,-0.07422025146484375,-9.65940659790039,1.1851298217773436,1.15966796875,-0.244140625,1.77001953125
1780564497.0384076,-0.06464344482421874,-9.647435589599608,1.1671733093261718,0.91552734375,-0.42724609375,1.953125
1780564497.0424075,-0.06105214233398437,-9.668983404541015,1.1935095275878906,0.79345703125,-0.48828125,1.52587890625
1780564497.0464075,-0.055066638183593745,-9.683348614501952,1.1755530151367186,0.79345703125,-0.48828125,1.3427734375
1780564497.0504074,-0.0526724365234375,-9.690531219482422,1.150413897705078,0.244140625,-0.244140625,1.15966796875
1780564497.0544074,-0.05386953735351562,-9.677363110351562,1.1516109985351561,0.67138671875,-0.30517578125,1.15966796875
1780564497.0584073,-0.06105214233398437,-9.643844287109374,1.1575965026855468,0.244140625,-0.18310546875,0.91552734375
1780564497.0624073,-0.051475335693359374,-9.667786303710937,1.1815385192871093,0.244140625,-0.3662109375,0.732421875
1780564497.0664072,-0.058657940673828124,-9.655815295410155,1.158793603515625,0.42724609375,-0.48828125,0.6103515625
1780564497.0704072,-0.08259995727539061,-9.64025298461914,1.149216796875,0.18310546875,-0.48828125,0.48828125
1780564497.074407,-0.07302315063476562,-9.647435589599608,1.1228805786132812,0.30517578125,-0.6103515625,0.42724609375
1780564497.078407,-0.05985504150390625,-9.627084875488281,1.1456254943847655,0.18310546875,-0.42724609375,0.244140625
1780564497.082407,-0.05985504150390625,-9.637858782958984,1.1575965026855468,0.0,-0.67138671875,0.18310546875
1780564497.086407,-0.06703764648437499,-9.63307037963867,1.150413897705078,-0.48828125,-0.30517578125,0.18310546875
1780564497.090407,-0.062249243164062495,-9.636661682128906,1.1623849060058593,-0.244140625,-0.48828125,-0.244140625
1780564497.0944068,-0.08020575561523437,-9.652223992919922,1.1360486877441405,-0.18310546875,-0.6103515625,-0.1220703125
1780564497.0984068,-0.0430956298828125,-9.657012396240233,1.1659762084960936,0.0,-0.48828125,0.0
1780564497.1024067,-0.040701428222656245,-9.651026892089844,1.1647791076660157,-0.3662109375,-0.18310546875,-0.30517578125
1780564497.1064067,-0.07062894897460938,-9.649829791259766,1.1372457885742187,0.0,-0.48828125,-0.54931640625
1780564497.1104066,-0.07062894897460938,-9.635464581298828,1.1635820068359375,-0.42724609375,-0.6103515625,-0.18310546875
1780564497.1144066,-0.05746083984375,-9.635464581298828,1.158793603515625,-0.18310546875,-0.42724609375,-0.1220703125
1780564497.1184065,-0.040701428222656245,-9.588777648925781,1.180341418457031,-0.18310546875,-0.48828125,-0.1220703125
