timestamp,acc_x,acc_y,acc_z,gyro_x,gyro_y,gyro_z
1781061928.3552794,0.1484405029296875,-6.68461103515625,7.28435855102539,2.9296875,-11.29150390625,2.86865234375
1781061928.3592794,0.20231004028320312,-6.675034228515624,7.210138299560547,3.84521484375,-11.1083984375,2.44140625
1781061928.3632793,0.2920926025390625,-6.642712506103515,7.1586629638671875,4.57763671875,-10.92529296875,2.13623046875
1781061928.3672793,0.3758896606445312,-6.598419775390624,7.202955694580078,5.18798828125,-10.19287109375,1.64794921875
1781061928.3712792,0.4333505004882812,-6.573280657958984,7.260416534423828,5.67626953125,-9.33837890625,0.9765625
1781061928.3752792,0.5147533569335937,-6.64630380859375,7.266402038574219,5.615234375,-8.4228515625,0.30517578125
1781061928.3792791,0.5662286926269531,-6.654683514404296,7.4040686340332025,6.40869140625,-7.87353515625,-0.30517578125
1781061928.383279,0.6811503723144531,-6.641515405273437,7.353790399169921,5.9814453125,-7.14111328125,-1.220703125
1781061928.387279,0.6452373474121094,-6.760028387451172,7.296329559326171,5.55419921875,-5.4931640625,-1.52587890625
1781061928.391279,0.55545478515625,-6.80551821899414,7.271190441894531,4.638671875,-3.35693359375,-2.44140625
1781061928.395279,0.5530605834960938,-6.773196496582031,7.220912207031249,3.11279296875,-1.3427734375,-3.41796875
1781061928.3992789,0.5530605834960938,-6.683413934326172,7.193378887939453,2.44140625,1.03759765625,-3.60107421875
1781061928.4032788,0.6572083557128906,-6.647500909423828,7.212532501220703,1.52587890625,3.173828125,-3.5400390625
1781061928.4072788,0.7003039855957031,-6.563703851318359,7.274781744384765,0.42724609375,5.31005859375,-2.99072265625
1781061928.4112787,0.7110778930664062,-6.527790826416015,7.329848382568359,-0.54931640625,6.89697265625,-2.13623046875
1781061928.4152787,0.7314286071777343,-6.455964776611328,7.335833886718749,-1.3427734375,7.568359375,-0.79345703125
1781061928.4192786,0.7302315063476562,-6.394912634277343,7.299920861816406,-2.0751953125,8.4228515625,0.6103515625
1781061928.4232786,0.7757213378906249,-6.393715533447265,7.38012661743164,-3.11279296875,9.765625,2.685546875
1781061928.4272785,0.6715735656738281,-6.356605407714843,7.601590270996093,-3.90625,11.1083984375,4.57763671875
1781061928.4312785,0.5710170959472656,-6.41646044921875,7.471106280517578,-6.28662109375,11.16943359375,6.04248046875
1781061928.4352784,0.45010991210937495,-6.453570574951171,7.234080316162109,-6.2255859375,11.5966796875,8.056640625
1781061928.4392784,0.4321533996582031,-6.368576416015625,7.199364392089843,-6.28662109375,11.962890625,10.009765625
1781061928.4432783,0.4896142395019531,-6.393715533447265,7.107187628173827,-6.9580078125,11.962890625,11.90185546875
1781061928.4472783,0.4369418029785156,-6.406883642578125,7.147889056396484,-6.8359375,12.14599609375,13.61083984375
1781061928.4512782,0.4740519287109375,-6.4655415832519525,7.2903440551757805,-6.4697265625,12.451171875,14.95361328125
1781061928.4552782,0.5111620544433594,-6.573280657958984,7.315483172607421,-5.2490234375,11.04736328125,16.4794921875
1781061928.459278,0.5195417602539062,-6.660669018554687,7.350199096679687,-3.72314453125,8.1787109375,17.15087890625
1781061928.463278,0.4381389038085937,-6.773196496582031,7.36097300415039,-2.685546875,6.2255859375,17.08984375
1781061928.467278,0.33758243408203126,-6.937199310302734,7.281964349365234,-0.9765625,4.7607421875,16.845703125
1781061928.471278,0.21906945190429686,-7.151480358886718,7.132326745605468,0.30517578125,3.173828125,15.625
1781061928.475278,0.15682020874023436,-7.266402038574219,7.048529687499999,1.46484375,2.86865234375,13.85498046875
1781061928.4792778,0.09217676391601562,-7.295132458496093,7.022193469238281,1.64794921875,3.5400390625,11.8408203125
1781061928.4832778,0.1197100830078125,-7.302315063476562,7.0090253601074215,2.50244140625,3.72314453125,9.765625
1781061928.4872777,0.16998831787109375,-7.249642626953125,7.059303594970703,3.2958984375,3.7841796875,7.568359375
1781061928.4912777,0.17118541870117188,-7.129932543945312,7.133523846435547,3.90625,3.84521484375,5.31005859375
1781061928.4952776,0.16879121704101563,-7.094019519042968,7.170633972167968,4.82177734375,3.41796875,3.23486328125
1781061928.4992776,0.15083470458984374,-7.040149981689453,7.181407879638671,5.55419921875,2.86865234375,1.15966796875
1781061928.5032775,0.17118541870117188,-6.959944226074218,7.228094812011718,6.28662109375,2.25830078125,-0.67138671875
1781061928.5072775,0.17477672119140625,-6.8976949829101555,7.261613635253906,7.01904296875,1.708984375,-2.197265625
1781061928.5112774,0.20949264526367187,-6.883329772949218,7.280767248535156,7.01904296875,0.6103515625,-3.60107421875
1781061928.5152774,0.1867477294921875,-6.835445739746094,7.299920861816406,7.080078125,0.06103515625,-4.39453125
1781061928.5192773,0.18555062866210936,-6.725312463378906,7.345410693359375,7.01904296875,-0.54931640625,-5.67626953125
1781061928.5232773,0.15322890625,-6.678625531005859,7.343016491699219,6.7138671875,-1.46484375,-6.591796875
1781061928.5272772,0.16041151123046873,-6.694187841796874,7.401674432373047,6.7138671875,-3.173828125,-7.26318359375
1781061928.5312772,0.14006079711914063,-6.659471917724609,7.455543969726562,6.591796875,-4.21142578125,-7.6904296875
1781061928.5352771,0.11252747802734374,-6.672640026855468,7.495048297119141,6.16455078125,-5.4931640625,-8.056640625
1781061928.539277,0.08259995727539061,-6.726509564208984,7.4962453979492185,5.859375,-6.77490234375,-8.544921875
1781061928.543277,0.09935936889648436,-6.7803791015625,7.498639599609374,5.31005859375,-8.1787109375,-8.85009765625
1781061928.547277,0.08978256225585937,-6.782773303222656,7.504625103759765,5.43212890625,-9.27734375,-9.33837890625
1781061928.551277,0.07302315063476562,-6.83783994140625,7.4699091796875,4.94384765625,-10.31494140625,-9.82666015625
1781061928.5552769,0.12569558715820311,-6.894103680419922,7.4794859863281244,4.8828125,-11.29150390625,-9.8876953125
1781061928.5592768,0.1352723937988281,-6.8785413696289055,7.487865692138671,4.69970703125,-12.0849609375,-10.1318359375
1781061928.5632768,0.13407529296874998,-6.898892083740234,7.474697583007812,4.7607421875,-13.0615234375,-10.25390625
1781061928.5672767,0.15562310791015624,-6.907271789550781,7.484274389648437,4.94384765625,-13.916015625,-10.498046875
1781061928.5712767,0.16519991455078123,-6.9336080078124995,7.471106280517578,5.18798828125,-14.34326171875,-10.498046875
1781061928.5752766,0.18315642700195311,-6.9527616210937495,7.473500482177734,5.55419921875,-14.58740234375,-11.04736328125
1781061928.5792766,0.2214636535644531,-7.001842755126953,7.456741070556641,6.28662109375,-14.95361328125,-11.1083984375
1781061928.5832765,0.2765302917480469,-7.000645654296875,7.471106280517578,6.8359375,-14.95361328125,-11.29150390625
1781061928.5872765,0.3016694091796875,-6.975506536865234,7.473500482177734,7.38525390625,-15.0146484375,-11.41357421875
1781061928.5912764,0.354341845703125,-6.95874712524414,7.448361364746093,8.056640625,-15.2587890625,-11.474609375
1781061928.5952764,0.3794809631347656,-6.93959351196289,7.430404852294921,8.97216796875,-15.19775390625,-11.71875
1781061928.5992763,0.37708676147460934,-6.902483386230468,7.371746911621093,9.70458984375,-15.2587890625,-11.90185546875
1781061928.6032763,0.3758896606445312,-6.904877587890625,7.369352709960937,10.43701171875,-15.13671875,-12.451171875
1781061928.6072762,0.43454760131835934,-6.9168485961914055,7.3861121215820305,10.8642578125,-14.6484375,-12.8173828125
1781061928.6112761,0.4465186096191406,-6.868964562988281,7.407659936523437,11.16943359375,-13.97705078125,-12.939453125
1781061928.615241,0.49679684448242184,-6.870161663818359,7.437587457275391,11.1083984375,-13.7939453125,-13.36669921875
1781061928.619241,0.4896142395019531,-6.885723974609375,7.4411787597656245,11.16943359375,-13.0615234375,-13.73291015625
1781061928.623241,0.5339069702148437,-6.872555865478515,7.451952667236328,11.29150390625,-12.75634765625,-14.16015625
1781061928.627241,0.5817910034179687,-6.83783994140625,7.46272657470703,11.41357421875,-12.5732421875,-14.46533203125
1781061928.6312408,0.6081272216796875,-6.8402341430664055,7.4411787597656245,11.53564453125,-12.20703125,-14.83154296875
1781061928.6351926,0.6057330200195312,-6.847416748046874,7.387309222412109,12.451171875,-12.0849609375,-15.44189453125
1781061928.6391926,0.6248866333007812,-6.818686328125,7.401674432373047,13.00048828125,-11.962890625,-15.80810546875
1781061928.6431925,0.6380547424316406,-6.800729815673828,7.338228088378906,13.36669921875,-11.474609375,-16.54052734375
1781061928.6471488,0.6572083557128906,-6.773196496582031,7.331045483398437,14.16015625,-11.04736328125,-17.578125
1781061928.6511488,0.6584054565429687,-6.716932757568359,7.338228088378906,14.58740234375,-11.04736328125,-18.1884765625
1781061928.655116,0.7062894897460937,-6.667851623535156,7.358578802490234,14.70947265625,-11.04736328125,-19.287109375
1781061928.659116,0.718260498046875,-6.5972226745605465,7.369352709960937,14.892578125,-11.474609375,-20.263671875
1781061928.663116,0.6607996582031249,-6.455964776611328,7.4220251464843745,14.892578125,-12.14599609375,-20.8740234375
1781061928.667116,0.8008604553222656,-6.386532928466797,7.581239556884765,14.7705078125,-13.12255859375,-21.78955078125
1781061928.6711159,0.7841010437011718,-6.418854650878906,7.4794859863281244,14.2822265625,-14.2822265625,-22.705078125
1781061928.6751158,0.7888894470214843,-6.393715533447265,7.548917834472656,13.427734375,-14.7705078125,-23.62060546875
1781061928.6791158,0.7745242370605468,-6.3901242309570305,7.511807708740234,12.939453125,-15.2587890625,-24.7802734375
1781061928.6831157,0.7445967163085937,-6.405686541748047,7.467514978027343,12.0849609375,-16.11328125,-26.18408203125
1781061928.6871157,0.7433996154785156,-6.40329234008789,7.483077288818359,11.04736328125,-16.54052734375,-27.77099609375
1781061928.6911156,0.7206546997070312,-6.291961962890625,7.4974424987792965,10.25390625,-16.78466796875,-29.35791015625
1781061928.6951156,0.7829039428710937,-6.411672045898437,7.529764221191406,8.97216796875,-17.7001953125,-30.70068359375
1781061928.6991155,0.6859387756347656,-6.380547424316406,7.436390356445312,8.11767578125,-18.12744140625,-32.40966796875
1781061928.7031155,0.6919242797851562,-6.423643054199219,7.513004809570312,7.2021484375,-18.9208984375,-34.3017578125
1781061928.7071154,0.6811503723144531,-6.506243011474609,7.492654095458984,5.859375,-18.9208984375,-36.19384765625
1781061928.7111082,0.6871358764648438,-6.581660363769531,7.551312036132812,5.0048828125,-19.53125,-37.59765625
1781061928.7151082,0.7529764221191406,-6.617573388671874,7.600393170166015,4.150390625,-20.20263671875,-39.12353515625
1781061928.719108,0.7984662536621093,-6.64630380859375,7.674613421630859,3.23486328125,-20.99609375,-40.58837890625
1781061928.723108,0.852335791015625,-6.665457421875,7.692569934082031,2.50244140625,-21.54541015625,-41.68701171875
1781061928.727108,0.9062053283691406,-6.658274816894531,7.693767034912109,2.0751953125,-21.78955078125,-42.3583984375
1781061928.731108,0.968454571533203,-6.678625531005859,7.681796026611328,2.13623046875,-22.705078125,-43.27392578125
1781061928.735108,1.0474632263183594,-6.695384942626953,7.668627917480468,2.62451171875,-23.681640625,-43.76220703125
1781061928.7390997,1.045069024658203,-6.642712506103515,7.626729388427734,2.86865234375,-24.10888671875,-44.12841796875
1781061928.7430997,1.1133037719726562,-6.586448767089843,7.625532287597656,3.662109375,-24.658203125,-44.5556640625
1781061928.7470996,1.1635820068359375,-6.564900952148437,7.484274389648437,4.5166015625,-25.20751953125,-44.5556640625
1781061928.7510996,1.2378022583007813,-6.563703851318359,7.5153990112304685,5.7373046875,-25.69580078125,-44.73876953125
1781061928.7550995,1.3108254089355469,-6.562506750488281,7.522581616210937,6.28662109375,-26.123046875,-44.73876953125
1781061928.7590995,1.3060370056152344,-6.470329986572265,7.572859851074218,6.40869140625,-25.634765625,-44.25048828125
1781061928.7630994,1.35990654296875,-6.360196710205078,7.5908163635253905,6.04248046875,-25.45166015625,-43.45703125
1781061928.7670994,1.43652099609375,-6.271611248779297,7.6087728759765625,5.79833984375,-25.45166015625,-42.78564453125
1781061928.7710993,1.466448516845703,-6.222530114746093,7.554903338623046,5.43212890625,-24.96337890625,-41.80908203125
1781061928.7750993,1.5131354492187499,-6.1638721740722655,7.487865692138671,5.4931640625,-25.08544921875,-41.015625
1781061928.7790992,1.5682020874023437,-6.041767889404296,7.5465236328125,4.7607421875,-24.71923828125,-39.48974609375
1781061928.7830992,1.6448165405273436,-6.050147595214844,7.544129431152343,4.33349609375,-24.658203125,-38.26904296875
1781061928.7870991,1.6891092712402342,-6.042964990234375,7.5537062377929685,3.90625,-24.90234375,-36.7431640625
1781061928.791099,1.7525556152343749,-6.016628771972656,7.535749725341796,4.0283203125,-25.7568359375,-34.97314453125
1781061928.795099,1.8064251525878905,-6.016628771972656,7.4962453979492185,4.45556640625,-26.18408203125,-32.89794921875
1781061928.799099,1.8088193542480469,-6.003460662841796,7.444770062255859,4.69970703125,-26.18408203125,-30.76171875
1781061928.803099,1.8519149841308593,-6.048950494384766,7.3478048950195305,5.31005859375,-26.0009765625,-28.80859375
1781061928.8070989,1.9009961181640624,-6.068104107666016,7.274781744384765,5.79833984375,-26.42822265625,-26.79443359375
1781061928.8110988,1.9321207397460936,-6.028599780273437,7.228094812011718,6.65283203125,-25.93994140625,-24.4140625
1781061928.8150988,1.9333178405761717,-6.003460662841796,7.141903552246093,7.38525390625,-25.08544921875,-22.39990234375
1781061928.8190987,1.956062756347656,-5.990292553710937,7.053318090820312,7.62939453125,-23.3154296875,-19.95849609375
1781061928.8230987,2.0183119995117185,-5.96275923461914,7.025784771728516,8.11767578125,-21.484375,-17.88330078125
1781061928.8270986,2.069787335205078,-5.9400143188476555,7.005434057617187,8.30078125,-19.95849609375,-15.80810546875
1781061928.8310986,2.1511901916503904,-5.884947680664062,7.012616662597656,8.6669921875,-18.49365234375,-13.24462890625
1781061928.8350985,2.2098481323242187,-5.80953032836914,7.041347082519531,8.6669921875,-17.51708984375,-10.8642578125
1781061928.8390985,2.2266075439453124,-5.737704278564453,7.116764434814453,8.85009765625,-16.845703125,-8.1787109375
1781061928.8430984,2.2780828796386716,-5.724536169433593,7.149086157226562,8.4228515625,-16.05224609375,-5.43212890625
1781061928.8470984,2.2972364929199216,-5.704185455322265,7.171831072998047,8.11767578125,-15.19775390625,-2.86865234375
1781061928.8510983,2.2924480895996093,-5.699397052001952,7.186196282958984,7.4462890625,-14.22119140625,-0.54931640625
1781061928.8550982,2.300827795410156,-5.704185455322265,7.149086157226562,7.14111328125,-12.63427734375,1.77001953125
1781061928.8590982,2.318784307861328,-5.7125651611328125,7.114370233154297,6.53076171875,-11.29150390625,3.84521484375
1781061928.8630981,2.3211785095214843,-5.718550665283203,7.129932543945312,5.9814453125,-9.94873046875,5.79833984375
1781061928.867098,2.308010400390625,-5.718550665283203,7.133523846435547,5.615234375,-8.6669921875,7.87353515625
1781061928.871098,2.3403321228027343,-5.761646295166015,7.151480358886718,5.31005859375,-7.32421875,10.009765625
1781061928.875098,2.3259669128417966,-5.82868394165039,7.1586629638671875,4.94384765625,-6.34765625,11.65771484375
1781061928.879098,2.3032219970703123,-5.882553479003906,7.143100653076171,4.5166015625,-4.69970703125,13.00048828125
1781061928.883098,2.2649147705078123,-5.925649108886718,7.077260107421875,4.150390625,-3.2958984375,13.97705078125
1781061928.8870978,2.251746661376953,-5.993883856201172,7.056909393310547,3.84521484375,-1.64794921875,15.0146484375
1781061928.8910978,2.2074539306640624,-6.044162091064453,7.052120989990234,3.84521484375,0.06103515625,15.80810546875
1781061928.8950977,2.2002713256835937,-6.102820031738281,7.053318090820312,3.41796875,1.46484375,16.6015625
1781061928.8990977,2.1930887207031247,-6.118382342529297,7.042544183349609,3.41796875,3.11279296875,16.7236328125
1781061928.9030976,2.176329309082031,-6.1638721740722655,7.0449383850097655,3.2958984375,4.57763671875,17.15087890625
1781061928.9070928,2.117671368408203,-6.123170745849609,7.042544183349609,3.5400390625,6.34765625,17.578125
1781061928.9110928,2.109291662597656,-6.110002636718749,7.067683300781249,3.23486328125,7.38525390625,17.578125
1781061928.9150927,2.080561242675781,-6.047753393554687,7.086836914062499,3.23486328125,8.48388671875,17.822265625
1781061928.9190927,2.039859814453125,-6.019022973632812,7.1215528381347655,3.41796875,9.94873046875,18.24951171875
1781061928.9230926,2.0266917053222655,-5.983109948730468,7.137115148925781,3.0517578125,10.6201171875,18.37158203125
1781061928.9270926,1.9895815795898437,-5.92445200805664,7.186196282958984,2.8076171875,11.53564453125,18.6767578125
1781061928.9310925,1.9416975463867185,-5.862202764892578,7.230489013671875,2.197265625,12.39013671875,19.04296875
1781061928.9350924,1.8734627990722654,-5.84185205078125,7.240065820312499,1.89208984375,13.18359375,19.59228515625
1781061928.9390924,1.8555062866210936,-5.8262897399902345,7.254431030273437,1.28173828125,13.61083984375,19.6533203125
1781061928.9430923,1.8195932617187498,-5.823895538330078,7.275978845214843,0.732421875,14.16015625,19.8974609375
1781061928.9470923,1.7741034301757812,-5.838260748291015,7.316680273437499,0.3662109375,14.58740234375,20.01953125
1781061928.9510922,1.7741034301757812,-5.893327386474609,7.3286512817382805,-0.06103515625,14.892578125,20.263671875
1781061928.9550922,1.7776947326660155,-5.902904193115234,7.429207751464843,-0.6103515625,14.5263671875,20.263671875
1781061928.9590921,1.7872715393066405,-5.949591125488281,7.467514978027343,-0.91552734375,13.85498046875,20.20263671875
1781061928.963092,1.7812860351562498,-6.019022973632812,7.545326531982422,-1.5869140625,13.427734375,19.83642578125
1781061928.967092,1.7477672119140624,-6.099228729248047,7.5465236328125,-2.25830078125,12.20703125,19.59228515625
1781061928.971092,1.686715069580078,-6.179434484863281,7.510610607910156,-2.9296875,11.90185546875,19.04296875
1781061928.975092,1.648407843017578,-6.215347509765625,7.451952667236328,-3.662109375,11.65771484375,18.37158203125
1781061928.979092,1.6160861206054686,-6.283582257080078,7.394491827392578,-4.08935546875,11.8408203125,17.578125
1781061928.9830918,1.5825672973632812,-6.321889483642578,7.34181939086914,-4.45556640625,12.3291015625,16.4794921875
1781061928.9870918,1.5586252807617187,-6.294356164550781,7.3478048950195305,-4.82177734375,13.00048828125,15.31982421875
1781061928.990989,1.5574281799316405,-6.323086584472656,7.339425189208984,-5.06591796875,13.97705078125,14.34326171875
1781061928.994989,1.5670049865722655,-6.335057592773437,7.36097300415039,-5.37109375,14.46533203125,13.0615234375
1781061928.9989889,1.581370196533203,-6.355408306884765,7.3932947265625,-5.43212890625,15.2587890625,12.51220703125
1781061929.0029888,1.552639776611328,-6.318298181152343,7.40526573486328,-5.7373046875,15.5029296875,11.5966796875
1781061929.0069888,1.5705962890624998,-6.28837066040039,7.41244833984375,-5.859375,16.11328125,10.7421875
1781061929.010982,1.590947003173828,-6.204573602294921,7.417236743164062,-5.43212890625,15.9912109375,10.1318359375
1781061929.014982,1.5538368774414062,-6.210559106445312,7.471106280517578,-5.37109375,15.56396484375,9.46044921875
1781061929.018982,1.523909356689453,-6.290764862060547,7.473500482177734,-5.2490234375,15.44189453125,9.033203125
1781061929.022982,1.4173673828125,-6.271611248779297,7.495048297119141,-5.9814453125,15.31982421875,8.97216796875
1781061929.0269818,1.3299790222167969,-6.246472131347656,7.451952667236328,-6.89697265625,15.56396484375,8.6669921875
1781061929.0309818,1.2761094848632812,-6.17344898071289,7.425616448974609,-7.50732421875,15.44189453125,8.9111328125
1781061929.0349817,1.2569558715820313,-6.066907006835937,7.376535314941406,-7.6904296875,16.11328125,9.21630859375
1781061929.0389817,1.2928688964843749,-6.0154316711425775,7.352593298339843,-7.6904296875,15.380859375,10.19287109375
1781061929.0429816,1.291671795654297,-5.968744738769531,7.3837179199218745,-7.32421875,15.0146484375,11.23046875
1781061929.0469816,1.3192051147460937,-5.9579708312988275,7.432799053955078,-7.75146484375,14.09912109375,12.51220703125
1781061929.0509815,1.2473790649414063,-5.954379528808594,7.429207751464843,-7.87353515625,13.18359375,13.97705078125
1781061929.0549815,1.216254443359375,-5.942408520507812,7.413645440673828,-7.87353515625,12.0849609375,15.5029296875
1781061929.0589814,1.1623849060058593,-6.019022973632812,7.387309222412109,-8.30078125,11.1083984375,17.4560546875
1781061929.0629814,1.1192892761230469,-6.0537388977050774,7.356184600830078,-8.7890625,10.31494140625,19.10400390625
1781061929.0669813,1.0594342346191405,-6.11598814086914,7.351396197509765,-9.58251953125,9.58251953125,20.8740234375
1781061929.0709813,0.9816226806640624,-6.174646081542968,7.3657614074707025,-9.94873046875,8.9111328125,22.705078125
1781061929.0749812,1.0390835205078124,-6.208164904785156,7.363367205810547,-10.07080078125,8.23974609375,24.59716796875
1781061929.0789812,0.939724151611328,-6.324283685302734,7.429207751464843,-10.07080078125,7.62939453125,26.9775390625
1781061929.082981,0.9085995300292968,-6.358999609374999,7.349001995849609,-10.31494140625,6.9580078125,29.052734375
1781061929.086981,1.016338604736328,-6.290764862060547,7.438784558105469,-9.521484375,5.92041015625,31.18896484375
1781061929.090981,0.9576806640625,-6.285976458740234,7.429207751464843,-8.11767578125,4.94384765625,33.02001953125
1781061929.094981,0.8702923034667969,-6.278793853759765,7.471106280517578,-6.65283203125,3.84521484375,34.7900390625
1781061929.098981,0.8595183959960937,-6.372167718505859,7.586027960205078,-5.7373046875,3.35693359375,36.376953125
1781061929.1029809,0.8750807067871094,-6.394912634277343,7.641094598388672,-5.18798828125,2.38037109375,38.2080078125
1781061929.1069808,0.8379705810546875,-6.341043096923828,7.64229169921875,-4.57763671875,1.5869140625,39.55078125
1781061929.1109807,0.7900865478515624,-6.333860491943359,7.606378674316406,-4.33349609375,1.3427734375,40.58837890625
1781061929.1149807,0.7637503295898437,-6.303932971191406,7.570465649414062,-3.84521484375,1.46484375,41.50390625
1781061929.1189806,0.7481880187988281,-6.318298181152343,7.5153990112304685,-3.662109375,0.9765625,42.41943359375
1781061929.1229806,0.7972691528320313,-6.355408306884765,7.522581616210937,-3.173828125,0.1220703125,43.212890625
1781061929.1269805,0.843956085205078,-6.355408306884765,7.557297540283202,-3.23486328125,-0.48828125,43.9453125
1781061929.1309805,0.8786720092773437,-6.36498511352539,7.498639599609374,-2.74658203125,-1.52587890625,44.43359375
1781061929.1349561,0.8870517150878906,-6.392518432617187,7.4974424987792965,-2.86865234375,-2.86865234375,44.921875
1781061929.138956,0.853532891845703,-6.439205364990234,7.551312036132812,-3.0517578125,-3.2958984375,44.73876953125
1781061929.142956,0.8295908752441405,-6.489483599853515,7.522581616210937,-3.23486328125,-3.7841796875,44.49462890625
1781061929.146956,0.8379705810546875,-6.600813977050781,7.481880187988281,-3.5400390625,-4.33349609375,43.76220703125
1781061929.150942,0.8176198669433593,-6.642712506103515,7.498639599609374,-3.5400390625,-4.0283203125,42.96875
1781061929.154942,0.8176198669433593,-6.648698010253906,7.5525091369628905,-3.662109375,-3.47900390625,41.44287109375
1781061929.158942,0.7996633544921875,-6.760028387451172,7.518990313720702,-3.47900390625,-3.35693359375,40.0390625
1781061929.162942,0.7924807495117187,-6.800729815673828,7.547720733642578,-3.23486328125,-2.8076171875,37.9638671875
1781061929.166942,0.7326257080078125,-6.924031201171875,7.5537062377929685,-3.2958984375,-1.89208984375,35.70556640625
1781061929.1709418,0.7230489013671875,-7.015010864257812,7.517793212890624,-3.2958984375,-1.0986328125,33.5693359375
1781061929.1749418,0.7314286071777343,-7.086836914062499,7.4591352722167965,-3.0517578125,-0.3662109375,31.31103515625
1781061929.1789417,0.729034405517578,-7.116764434814453,7.451952667236328,-2.44140625,0.48828125,28.564453125
1781061929.1829417,0.6859387756347656,-7.168239770507812,7.448361364746093,-1.89208984375,1.708984375,25.87890625
1781061929.1869416,0.6655880615234374,-7.179013677978515,7.3861121215820305,-1.5869140625,2.25830078125,23.4375
1781061929.1909142,0.6536170532226562,-7.167042669677734,7.3861121215820305,-1.40380859375,3.5400390625,21.3623046875
1781061929.194914,0.6416460449218749,-7.0844427124023435,7.4232222473144525,-1.3427734375,4.638671875,18.798828125
1781061929.198914,0.6943184814453125,-7.029376074218749,7.431601953125,-1.0986328125,5.18798828125,16.7236328125
1781061929.2028599,0.7146691955566405,-6.8964978820800775,7.492654095458984,-0.54931640625,5.2490234375,15.07568359375
1781061929.206823,0.6847416748046875,-6.794744311523437,7.572859851074218,-0.3662109375,5.37109375,13.3056640625
1781061929.210823,0.689530078125,-6.7037646484375,7.6279264892578125,-0.48828125,5.126953125,11.962890625
1781061929.214823,0.7314286071777343,-6.667851623535156,7.636306195068359,0.06103515625,4.33349609375,10.55908203125
1781061929.2187696,0.7062894897460937,-6.5960255737304685,7.665036614990234,-0.06103515625,4.0283203125,8.97216796875
1781061929.2227695,0.6631938598632812,-6.544550238037109,7.600393170166015,-0.48828125,3.72314453125,7.75146484375
1781061929.2267694,0.6655880615234374,-6.515819818115234,7.5465236328125,-0.3662109375,2.9296875,6.8359375
1781061929.2307694,0.6488286499023437,-6.48589229736328,7.507019305419921,-0.1220703125,2.25830078125,5.4931640625
1781061929.2347693,0.6524199523925781,-6.433219860839843,7.481880187988281,0.0,1.77001953125,4.33349609375
1781061929.2387693,0.6607996582031249,-6.4475850708007805,7.442375860595702,0.48828125,1.40380859375,3.11279296875
1781061929.2427692,0.6524199523925781,-6.439205364990234,7.442375860595702,0.6103515625,0.54931640625,1.8310546875
1781061929.2467692,0.6452373474121094,-6.421248852539062,7.451952667236328,0.732421875,0.0,0.54931640625
1781061929.2507691,0.6596025573730468,-6.458358978271484,7.44357296142578,0.244140625,-0.54931640625,-0.79345703125
1781061929.254769,0.699106884765625,-6.487089398193359,7.442375860595702,0.48828125,-1.15966796875,-1.953125
1781061929.258769,0.6488286499023437,-6.514622717285156,7.432799053955078,0.0,-1.64794921875,-2.99072265625
1781061929.262769,0.6212953308105469,-6.543353137207031,7.41244833984375,-0.67138671875,-1.77001953125,-4.5166015625
1781061929.266769,0.6536170532226562,-6.562506750488281,7.401674432373047,-0.48828125,-1.953125,-5.18798828125
1781061929.270769,0.6931213806152343,-6.580463262939452,7.396886029052734,-1.0986328125,-2.685546875,-6.28662109375
1781061929.2747688,0.6979097839355468,-6.5756748596191406,7.417236743164062,-1.46484375,-2.9296875,-7.080078125
1781061929.2787688,0.6859387756347656,-6.586448767089843,7.407659936523437,-1.46484375,-2.8076171875,-7.99560546875
1781061929.2827687,0.7386112121582031,-6.587645867919922,7.406462835693359,-1.15966796875,-3.2958984375,-8.4228515625
1781061929.2867687,0.7326257080078125,-6.5948284729003905,7.451952667236328,-1.5869140625,-3.173828125,-9.033203125
1781061929.2907686,0.7493851196289062,-6.5756748596191406,7.448361364746093,-1.3427734375,-3.72314453125,-9.70458984375
1781061929.2947686,0.7445967163085937,-6.5972226745605465,7.4411787597656245,-0.54931640625,-4.33349609375,-9.765625
1781061929.2987685,0.7709329345703124,-6.616376287841796,7.4399816589355465,-0.54931640625,-4.8828125,-10.25390625
1781061929.3027685,0.7565677246093749,-6.584054565429687,7.451952667236328,-0.42724609375,-4.7607421875,-10.6201171875
1781061929.3067684,0.7517793212890624,-6.593631372070312,7.466317877197265,0.06103515625,-5.37109375,-10.6201171875
1781061929.3107684,0.7649474304199219,-6.572083557128906,7.461529473876952,0.3662109375,-5.55419921875,-10.986328125
1781061929.3147683,0.7912836486816406,-6.518214019775391,7.4962453979492185,0.67138671875,-6.04248046875,-11.16943359375
1781061929.3187683,0.814028564453125,-6.524199523925781,7.472303381347656,0.54931640625,-6.04248046875,-11.65771484375
1781061929.3227682,0.8092401611328125,-6.49307490234375,7.445967163085937,0.732421875,-6.40869140625,-11.474609375
1781061929.3267682,0.8702923034667969,-6.489483599853515,7.471106280517578,0.6103515625,-6.53076171875,-11.5966796875
1781061929.330768,0.9074024291992187,-6.472724188232421,7.475894683837891,0.67138671875,-6.65283203125,-12.0849609375
1781061929.334768,0.9337386474609375,-6.476315490722656,7.456741070556641,0.48828125,-6.9580078125,-12.0849609375
1781061929.338768,0.9157821350097656,-6.509834313964843,7.430404852294921,0.54931640625,-6.77490234375,-12.0849609375
1781061929.342768,0.9612719665527343,-6.45476767578125,7.42441934814453,0.30517578125,-6.4697265625,-11.65771484375
1781061929.346768,0.9648632690429687,-6.491877801513671,7.338228088378906,0.42724609375,-6.16455078125,-11.65771484375
1781061929.3507679,1.005564697265625,-6.481103894042969,7.358578802490234,0.06103515625,-5.67626953125,-11.41357421875
1781061929.3547678,1.0199299072265624,-6.45476767578125,7.395688928222656,-0.18310546875,-5.37109375,-11.3525390625
1781061929.3587677,1.035492218017578,-6.460753179931641,7.387309222412109,-0.48828125,-4.7607421875,-10.92529296875
1781061929.3627677,1.0438719238281249,-6.496666204833984,7.389703424072265,-0.18310546875,-4.33349609375,-10.498046875
1781061929.3667676,1.0761936462402344,-6.509834313964843,7.332242584228515,0.0,-4.21142578125,-9.765625
1781061929.3707676,1.0690110412597655,-6.460753179931641,7.362170104980469,-0.18310546875,-3.90625,-9.033203125
1781061929.3747675,1.0690110412597655,-6.509834313964843,7.337030987548828,0.244140625,-3.41796875,-8.48388671875
1781061929.3787675,1.1133037719726562,-6.481103894042969,7.329848382568359,-0.1220703125,-3.72314453125,-7.62939453125
1781061929.3827674,1.0761936462402344,-6.441599566650391,7.335833886718749,0.42724609375,-3.0517578125,-7.080078125
1781061929.3867674,1.071405242919922,-6.374561920166015,7.283161450195312,0.54931640625,-2.8076171875,-6.28662109375
1781061929.3907673,1.0857704528808594,-6.363788012695312,7.2723875427246085,0.8544921875,-2.44140625,-5.55419921875
1781061929.3947673,1.0582371337890624,-6.3147068786621094,7.283161450195312,0.91552734375,-2.01416015625,-4.94384765625
1781061929.3987672,1.0474632263183594,-6.332663391113281,7.297526660156249,1.28173828125,-1.46484375,-4.33349609375
1781061929.4027672,1.0666168395996094,-6.338648895263671,7.302315063476562,1.0986328125,-1.15966796875,-3.72314453125
1781061929.4067671,1.054645831298828,-6.338648895263671,7.356184600830078,0.91552734375,-0.9765625,-3.41796875
1781061929.410767,1.061828436279297,-6.348225701904297,7.40526573486328,0.54931640625,-0.9765625,-2.8076171875
1781061929.414767,1.0594342346191405,-6.379350323486328,7.449558465576171,-0.244140625,-0.91552734375,-2.25830078125
1781061929.418767,1.083376251220703,-6.410474945068359,7.445967163085937,-0.48828125,-1.15966796875,-2.0751953125
1781061929.422767,1.0594342346191405,-6.4092778442382805,7.4770917846679685,-0.9765625,-0.9765625,-1.708984375
1781061929.4267669,1.0690110412597655,-6.441599566650391,7.4591352722167965,-1.77001953125,-0.6103515625,-1.708984375
1781061929.4307668,1.073799444580078,-6.496666204833984,7.438784558105469,-2.01416015625,-0.79345703125,-1.46484375
1781061929.4347668,1.054645831298828,-6.548141540527343,7.442375860595702,-2.62451171875,-0.244140625,-1.3427734375
1781061929.4387667,1.064222637939453,-6.6139820861816405,7.414842541503906,-2.5634765625,0.0,-1.52587890625
1781061929.4427667,1.083376251220703,-6.661866119384765,7.362170104980469,-2.38037109375,0.6103515625,-1.64794921875
1781061929.4467666,1.0941501586914062,-6.714538555908203,7.319074475097656,-2.38037109375,0.9765625,-1.40380859375
1781061929.4507666,1.1037269653320312,-6.745663177490234,7.271190441894531,-1.953125,2.01416015625,-1.3427734375
1781061929.4547665,1.0654197387695312,-6.739677673339843,7.273584643554687,-1.89208984375,2.38037109375,-1.40380859375
1781061929.4587665,1.0821791503906248,-6.755239984130859,7.292738256835937,-1.3427734375,2.86865234375,-1.0986328125
1781061929.4627323,1.102529864501953,-6.743268975830078,7.316680273437499,-0.48828125,3.35693359375,-0.91552734375
1781061929.4667323,1.071405242919922,-6.72291826171875,7.335833886718749,0.30517578125,3.72314453125,-0.48828125
1781061929.4707322,1.0474632263183594,-6.696582043457031,7.325059979248047,0.91552734375,3.60107421875,-0.18310546875
1781061929.4747322,1.0307038146972656,-6.655880615234374,7.333439685058593,1.77001953125,4.08935546875,0.30517578125
1781061929.4786928,1.0319009155273438,-6.672640026855468,7.338228088378906,2.50244140625,4.2724609375,0.6103515625
1781061929.4826927,0.9983820922851562,-6.617573388671874,7.315483172607421,3.41796875,4.2724609375,0.732421875
1781061929.4866927,1.0007762939453124,-6.5768719604492185,7.340622290039062,4.33349609375,4.5166015625,1.15966796875
1781061929.4906926,0.9876081848144531,-6.519411120605469,7.359775903320312,4.5166015625,4.82177734375,1.708984375
1781061929.4946926,0.9504980590820312,-6.506243011474609,7.390900524902343,4.7607421875,4.57763671875,2.01416015625
1781061929.4986925,0.9624690673828125,-6.48589229736328,7.4232222473144525,4.638671875,4.45556640625,2.44140625
1781061929.5026925,0.939724151611328,-6.4643444824218745,7.4579381713867186,4.57763671875,4.2724609375,2.685546875
1781061929.5066924,0.9361328491210937,-6.453570574951171,7.491456994628906,4.150390625,3.90625,2.86865234375
1781061929.510684,0.9433154541015625,-6.4284314575195305,7.504625103759765,4.150390625,3.5400390625,3.173828125
1781061929.514684,0.9409212524414062,-6.420051751708984,7.495048297119141,3.84521484375,3.41796875,3.35693359375
1781061929.518684,0.9241618408203125,-6.430825659179687,7.4974424987792965,3.662109375,3.11279296875,3.5400390625
1781061929.5226839,0.9193734375,-6.445190869140625,7.468712078857421,3.35693359375,3.173828125,3.35693359375
1781061929.5266838,0.9325415466308593,-6.440402465820312,7.447164263916015,2.99072265625,2.8076171875,3.11279296875
1781061929.5306838,0.9349357482910156,-6.451176373291015,7.433996154785156,2.8076171875,2.99072265625,2.99072265625
1781061929.5346837,0.8978256225585937,-6.449979272460937,7.378929516601562,2.74658203125,3.23486328125,2.50244140625
1781061929.5386837,0.8942343200683593,-6.490680700683593,7.339425189208984,2.13623046875,3.173828125,2.25830078125
1781061929.5426836,0.9002198242187499,-6.453570574951171,7.356184600830078,2.13623046875,3.662109375,1.77001953125
1781061929.5466835,0.8774749084472656,-6.463147381591797,7.359775903320312,2.01416015625,3.5400390625,0.732421875
1781061929.5506835,0.8942343200683593,-6.439205364990234,7.375338214111328,1.708984375,3.23486328125,0.6103515625
1781061929.5546834,0.8894459167480468,-6.399701037597656,7.378929516601562,1.46484375,3.23486328125,0.30517578125
1781061929.5586834,0.9062053283691406,-6.357802508544921,7.389703424072265,0.9765625,2.86865234375,-0.1220703125
1781061929.5626833,0.8942343200683593,-6.309918475341797,7.371746911621093,0.3662109375,2.74658203125,-0.30517578125
1781061929.5666833,0.8894459167480468,-6.289567761230469,7.396886029052734,0.06103515625,2.3193359375,-0.8544921875
1781061929.5706832,0.852335791015625,-6.238092425537109,7.401674432373047,-0.244140625,2.3193359375,-1.03759765625
1781061929.5746832,0.86191259765625,-6.259640240478515,7.411251239013671,-0.9765625,2.25830078125,-1.3427734375
1781061929.5786831,0.843956085205078,-6.247669232177734,7.417236743164062,-1.5869140625,1.89208984375,-1.52587890625
1781061929.582683,0.8559270935058593,-6.264428643798828,7.438784558105469,-1.89208984375,1.8310546875,-1.5869140625
1781061929.586683,0.8702923034667969,-6.276399652099609,7.4208280456542965,-2.38037109375,1.15966796875,-1.52587890625
1781061929.590683,0.8750807067871094,-6.301538769531249,7.408857037353515,-2.62451171875,0.54931640625,-1.46484375
1781061929.594683,0.8990227233886718,-6.343437298583984,7.410054138183593,-3.173828125,0.1220703125,-1.5869140625
1781061929.5986829,0.8726865051269531,-6.3709706176757805,7.430404852294921,-3.35693359375,-0.42724609375,-1.03759765625
1781061929.6026828,0.8487444885253905,-6.400898138427734,7.416039642333984,-3.47900390625,-0.8544921875,-0.91552734375
1781061929.6066828,0.8667010009765624,-6.405686541748047,7.395688928222656,-3.72314453125,-0.8544921875,-0.79345703125
1781061929.6106827,0.8786720092773437,-6.433219860839843,7.429207751464843,-3.47900390625,-1.28173828125,-0.54931640625
1781061929.6146827,0.8559270935058593,-6.487089398193359,7.410054138183593,-3.35693359375,-1.03759765625,-0.3662109375
1781061929.6186826,0.8882488159179687,-6.517016918945312,7.401674432373047,-3.23486328125,-1.15966796875,-0.1220703125
1781061929.6226826,0.8882488159179687,-6.5038488098144525,7.408857037353515,-3.11279296875,-1.15966796875,-0.06103515625
1781061929.6266825,0.8786720092773437,-6.505045910644531,7.407659936523437,-2.74658203125,-0.91552734375,0.1220703125
1781061929.6306825,0.8607154968261719,-6.519411120605469,7.390900524902343,-2.5634765625,-0.67138671875,0.244140625
1781061929.6346824,0.8882488159179687,-6.526593725585937,7.39928023071289,-2.50244140625,-0.48828125,0.3662109375
1781061929.6386824,0.8631096984863281,-6.482300994873047,7.4028715332031245,-2.3193359375,-0.06103515625,0.79345703125
1781061929.6426823,0.8702923034667969,-6.4739212890625,7.411251239013671,-2.13623046875,0.1220703125,1.28173828125
1781061929.6466823,0.8978256225585937,-6.4655415832519525,7.39928023071289,-2.01416015625,0.18310546875,1.0986328125
1781061929.6506822,0.8906430175781249,-6.443993768310547,7.447164263916015,-1.77001953125,0.18310546875,1.28173828125
1781061929.6546822,0.8690952026367187,-6.443993768310547,7.468712078857421,-2.01416015625,0.42724609375,1.5869140625
1781061929.658682,0.8846575134277344,-6.41646044921875,7.455543969726562,-2.0751953125,-0.1220703125,1.64794921875
1781061929.662682,0.853532891845703,-6.40329234008789,7.442375860595702,-2.13623046875,0.06103515625,1.953125
1781061929.666682,0.8367734802246093,-6.440402465820312,7.4411787597656245,-2.25830078125,0.0,1.8310546875
1781061929.670682,0.8295908752441405,-6.440402465820312,7.389703424072265,-2.50244140625,0.30517578125,1.5869140625
1781061929.674682,0.8128314636230468,-6.453570574951171,7.369352709960937,-2.86865234375,0.244140625,1.3427734375
1781061929.6786819,0.8164227661132812,-6.442796667480469,7.343016491699219,-2.99072265625,0.54931640625,1.15966796875
1781061929.6826818,0.833182177734375,-6.4356140625,7.3549875,-3.2958984375,0.18310546875,0.91552734375
1781061929.6866817,0.8355763793945312,-6.440402465820312,7.371746911621093,-3.662109375,0.42724609375,0.732421875
1781061929.6906817,0.8319850769042968,-6.433219860839843,7.362170104980469,-3.662109375,0.244140625,0.244140625
1781061929.6946816,0.8128314636230468,-6.467935784912109,7.339425189208984,-4.150390625,0.18310546875,0.06103515625
1781061929.698679,0.8283937744140625,-6.442796667480469,7.335833886718749,-4.2724609375,0.1220703125,-0.06103515625
1781061929.702679,0.7996633544921875,-6.478709692382812,7.313088970947265,-4.39453125,0.06103515625,-0.244140625
1781061929.7066789,0.8176198669433593,-6.471527087402343,7.323862878417969,-4.5166015625,0.0,-0.54931640625
1781061929.7106788,0.8212111694335937,-6.479906793212891,7.281964349365234,-4.39453125,0.18310546875,-0.6103515625
1781061929.7146788,0.8080430603027343,-6.449979272460937,7.285555651855469,-4.21142578125,0.06103515625,-0.3662109375
1781061929.7186494,0.8152256652832031,-6.445190869140625,7.30351216430664,-4.5166015625,0.18310546875,-0.18310546875
1781061929.7226493,0.8319850769042968,-6.4475850708007805,7.311891870117187,-4.39453125,0.244140625,-0.18310546875
1781061929.7266493,0.8056488586425781,-6.4655415832519525,7.301117962646484,-4.33349609375,0.42724609375,0.1220703125
1781061929.7306492,0.8152256652832031,-6.477512591552734,7.349001995849609,-4.33349609375,0.30517578125,0.06103515625
1781061929.7346492,0.8128314636230468,-6.4834980957031245,7.368155609130859,-4.45556640625,0.48828125,0.42724609375
1781061929.7385347,0.8295908752441405,-6.505045910644531,7.359775903320312,-4.21142578125,0.48828125,0.54931640625
1781061929.7425346,0.8104372619628906,-6.5589154479980465,7.3932947265625,-4.150390625,0.30517578125,0.8544921875
1781061929.7465346,0.834379278564453,-6.562506750488281,7.41244833984375,-3.90625,0.42724609375,0.8544921875
1781061929.7505345,0.8499415893554687,-6.599616876220702,7.416039642333984,-3.90625,0.06103515625,0.91552734375
1781061929.7545345,0.8259995727539062,-6.692990740966796,7.38012661743164,-3.5400390625,0.18310546875,1.03759765625
1781061929.7585344,0.8188169677734375,-6.730100866699218,7.388506323242187,-3.173828125,0.244140625,1.0986328125
1781061929.7625344,0.8499415893554687,-6.775590698242187,7.350199096679687,-2.685546875,0.244140625,0.732421875
1781061929.7665343,0.8858546142578124,-6.8031240173339835,7.337030987548828,-2.3193359375,0.42724609375,0.67138671875
1781061929.7705343,0.8810662109374999,-6.84382544555664,7.317877374267578,-1.5869140625,0.91552734375,0.42724609375
1781061929.7745342,0.8690952026367187,-6.847416748046874,7.28435855102539,-0.91552734375,1.03759765625,0.30517578125
1781061929.7785342,0.8786720092773437,-6.842628344726562,7.286752752685547,-0.30517578125,1.708984375,0.0
1781061929.7825341,0.8667010009765624,-6.819883428955078,7.26520493774414,0.1220703125,1.953125,-0.54931640625
1781061929.786534,0.8559270935058593,-6.809109521484374,7.278373046874999,0.732421875,2.50244140625,-0.91552734375
1781061929.790534,0.8607154968261719,-6.774393597412109,7.2915411560058585,1.15966796875,2.5634765625,-1.28173828125
1781061929.794534,0.8726865051269531,-6.6893994384765625,7.295132458496093,1.28173828125,2.74658203125,-1.46484375
1781061929.798534,0.8595183959960937,-6.654683514404296,7.308300567626953,1.52587890625,2.8076171875,-1.708984375
1781061929.8025339,0.8667010009765624,-6.599616876220702,7.334636785888671,0.79345703125,2.99072265625,-1.77001953125
1781061929.8065338,0.8858546142578124,-6.5038488098144525,7.3861121215820305,0.67138671875,2.685546875,-2.01416015625
1781061929.8105338,0.8858546142578124,-6.420051751708984,7.3861121215820305,0.30517578125,2.5634765625,-1.89208984375
1781061929.8145337,0.8583212951660156,-6.3709706176757805,7.396886029052734,-0.67138671875,2.01416015625,-1.8310546875
1781061929.8185337,0.8786720092773437,-6.341043096923828,7.416039642333984,-1.15966796875,1.77001953125,-1.77001953125
1781061929.8225336,0.8738836059570312,-6.303932971191406,7.416039642333984,-1.77001953125,1.40380859375,-1.5869140625
1781061929.8265336,0.8463502868652343,-6.283582257080078,7.407659936523437,-2.685546875,1.3427734375,-1.15966796875
1781061929.8305335,0.8607154968261719,-6.238092425537109,7.401674432373047,-3.47900390625,0.9765625,-0.9765625
1781061929.8345206,0.8631096984863281,-6.251260534667968,7.4232222473144525,-3.96728515625,0.8544921875,-0.732421875
1781061929.8385205,0.833182177734375,-6.259640240478515,7.425616448974609,-4.7607421875,0.732421875,-0.3662109375
1781061929.8425205,0.8451531860351562,-6.254851837158203,7.41244833984375,-5.37109375,0.3662109375,0.244140625
1781061929.8465033,0.8559270935058593,-6.301538769531249,7.4220251464843745,-6.16455078125,0.48828125,0.1220703125
1781061929.8505032,0.853532891845703,-6.369773516845703,7.429207751464843,-6.65283203125,0.0,0.6103515625
1781061929.8545032,0.8379705810546875,-6.438008264160156,7.416039642333984,-7.01904296875,-0.244140625,0.732421875
1781061929.858503,0.8738836059570312,-6.488286499023437,7.392097625732421,-7.080078125,-0.1220703125,1.220703125
1781061929.862503,0.8702923034667969,-6.582857464599609,7.39928023071289,-7.14111328125,-0.48828125,1.46484375
1781061929.866503,0.8355763793945312,-6.5960255737304685,7.388506323242187,-6.9580078125,-0.42724609375,1.8310546875
1781061929.870503,0.8295908752441405,-6.6714429260253905,7.3837179199218745,-6.8359375,-0.6103515625,1.953125
1781061929.874503,0.8355763793945312,-6.654683514404296,7.362170104980469,-5.859375,-0.48828125,2.3193359375
1781061929.8785028,0.8259995727539062,-6.700173345947265,7.349001995849609,-5.615234375,-0.79345703125,2.44140625
1781061929.8825028,0.8487444885253905,-6.700173345947265,7.357381701660156,-4.638671875,-0.42724609375,2.86865234375
1781061929.8865027,0.8188169677734375,-6.6905965393066404,7.37414111328125,-4.150390625,-0.48828125,2.86865234375
1781061929.8905027,0.8379705810546875,-6.68461103515625,7.3861121215820305,-3.35693359375,-0.30517578125,3.23486328125
1781061929.8945026,0.8463502868652343,-6.673837127685546,7.398083129882812,-2.99072265625,-0.244140625,3.47900390625
1781061929.8985026,0.824802471923828,-6.6714429260253905,7.447164263916015,-2.62451171875,-0.3662109375,3.60107421875
1781061929.9025025,0.8307879760742187,-6.667851623535156,7.435193255615234,-2.0751953125,-0.67138671875,3.90625
1781061929.9065025,0.8355763793945312,-6.666654522705078,7.46272657470703,-1.708984375,-0.732421875,4.08935546875
1781061929.9105024,0.833182177734375,-6.672640026855468,7.491456994628906,-1.8310546875,-0.79345703125,4.150390625
1781061929.9145024,0.8008604553222656,-6.678625531005859,7.4782888854980465,-1.89208984375,-0.91552734375,4.5166015625
1781061929.9185023,0.8200140686035156,-6.694187841796874,7.46272657470703,-1.28173828125,-0.8544921875,4.150390625
1781061929.9225023,0.8128314636230468,-6.6702458251953125,7.474697583007812,-1.220703125,-1.220703125,4.33349609375
1781061929.9265022,0.7924807495117187,-6.702567547607422,7.46272657470703,-0.9765625,-0.8544921875,4.33349609375
1781061929.9305022,0.8188169677734375,-6.70975015258789,7.445967163085937,-0.8544921875,-0.732421875,4.08935546875
1781061929.9345021,0.82360537109375,-6.687005236816406,7.44357296142578,-0.8544921875,-0.79345703125,3.96728515625
1781061929.938502,0.7972691528320313,-6.696582043457031,7.4603323730468745,-0.732421875,-0.67138671875,3.7841796875
1781061929.942502,0.7984662536621093,-6.7085530517578125,7.463923675537109,-0.3662109375,-1.0986328125,3.47900390625
1781061929.946502,0.7960720520019531,-6.6714429260253905,7.484274389648437,-0.48828125,-0.8544921875,3.2958984375
1781061929.950502,0.7936778503417968,-6.6702458251953125,7.461529473876952,-0.54931640625,-1.28173828125,2.99072265625
1781061929.9545019,0.7972691528320313,-6.657077716064452,7.4579381713867186,-0.42724609375,-1.40380859375,2.86865234375
1781061929.9585018,0.7769184387207031,-6.657077716064452,7.449558465576171,-0.6103515625,-1.46484375,2.8076171875
1781061929.9625018,0.7649474304199219,-6.640318304443359,7.4603323730468745,-0.42724609375,-1.52587890625,2.44140625
1781061929.9665017,0.7876923461914062,-6.616376287841796,7.445967163085937,-0.48828125,-1.5869140625,2.62451171875
1781061929.9705017,0.7948749511718749,-6.610390783691406,7.4603323730468745,-0.30517578125,-2.0751953125,2.0751953125
1781061929.9745016,0.7960720520019531,-6.618770489501952,7.442375860595702,-0.67138671875,-2.13623046875,2.197265625
1781061929.9785016,0.7888894470214843,-6.612784985351562,7.426813549804687,-0.54931640625,-2.3193359375,2.197265625
1781061929.9825015,0.7841010437011718,-6.624755993652343,7.431601953125,-0.30517578125,-2.44140625,1.77001953125
1781061929.9865015,0.7936778503417968,-6.617573388671874,7.4220251464843745,-0.244140625,-2.8076171875,1.8310546875
1781061929.9905014,0.7960720520019531,-6.603208178710937,7.3837179199218745,-0.18310546875,-2.99072265625,1.5869140625
1781061929.9945014,0.7912836486816406,-6.676231329345702,7.396886029052734,-0.30517578125,-2.99072265625,1.40380859375
1781061929.9985013,0.7505822204589844,-6.659471917724609,7.369352709960937,0.06103515625,-3.23486328125,1.220703125
1781061930.0025012,0.7673416320800781,-6.654683514404296,7.381323718261719,0.06103515625,-3.60107421875,1.28173828125
1781061930.0065012,0.7661445312499999,-6.688202337646484,7.381323718261719,0.3662109375,-3.662109375,0.8544921875
1781061930.0104613,0.7577648254394531,-6.677428430175781,7.368155609130859,0.18310546875,-3.5400390625,0.48828125
1781061930.0144613,0.7541735229492187,-6.730100866699218,7.356184600830078,0.48828125,-3.96728515625,0.48828125
1781061930.0184612,0.7661445312499999,-6.742071875,7.352593298339843,0.48828125,-3.96728515625,0.06103515625
1781061930.0224612,0.7553706237792969,-6.740874774169922,7.343016491699219,1.03759765625,-4.21142578125,0.244140625
1781061930.0264611,0.7972691528320313,-6.76122548828125,7.382520819091797,1.03759765625,-4.2724609375,0.1220703125
1781061930.030461,0.814028564453125,-6.740874774169922,7.363367205810547,1.15966796875,-4.45556640625,0.18310546875
1781061930.034461,0.7948749511718749,-6.740874774169922,7.320271575927734,1.40380859375,-4.638671875,-0.18310546875
1781061930.0384085,0.814028564453125,-6.698976245117187,7.314286071777343,1.8310546875,-4.39453125,-0.1220703125
1781061930.0423577,0.7924807495117187,-6.675034228515624,7.296329559326171,2.0751953125,-4.5166015625,-0.06103515625
1781061930.0463533,0.8116343627929687,-6.677428430175781,7.299920861816406,2.38037109375,-4.638671875,-0.1220703125
1781061930.0503533,0.8391676818847655,-6.648698010253906,7.301117962646484,2.44140625,-4.7607421875,-0.3662109375
1781061930.0543532,0.8475473876953125,-6.598419775390624,7.264007836914062,2.5634765625,-4.69970703125,-0.48828125
1781061930.0583532,0.8499415893554687,-6.599616876220702,7.260416534423828,2.86865234375,-4.7607421875,-0.30517578125
1781061930.0623531,0.8403647827148437,-6.5780690612792965,7.247248425292969,3.173828125,-4.82177734375,-0.54931640625
1781061930.066353,0.853532891845703,-6.570886456298828,7.219715106201171,3.2958984375,-4.5166015625,-0.6103515625
1781061930.070353,0.852335791015625,-6.544550238037109,7.201758593749999,3.23486328125,-4.39453125,-0.54931640625
1781061930.074343,0.8367734802246093,-6.532579229736328,7.165845568847656,3.173828125,-4.08935546875,-1.03759765625
1781061930.078343,0.8547299926757812,-6.508637213134765,7.189787585449218,2.9296875,-3.90625,-1.0986328125
1781061930.0823429,0.8487444885253905,-6.489483599853515,7.181407879638671,2.62451171875,-3.662109375,-1.220703125
1781061930.0863428,0.8283937744140625,-6.475118389892578,7.200561492919921,1.89208984375,-3.662109375,-1.52587890625
1781061930.0903428,0.8068459594726562,-6.4846951965332025,7.206546997070312,1.46484375,-3.41796875,-1.708984375
1781061930.0943427,0.853532891845703,-6.460753179931641,7.240065820312499,0.6103515625,-3.173828125,-1.708984375
1781061930.0983427,0.8307879760742187,-6.495469104003906,7.262810736083984,0.18310546875,-3.2958984375,-1.64794921875
1781061930.1023426,0.843956085205078,-6.511031414794921,7.259219433593749,-0.18310546875,-3.0517578125,-1.46484375
1781061930.1063426,0.8451531860351562,-6.514622717285156,7.296329559326171,-0.244140625,-3.0517578125,-1.52587890625
1781061930.1103425,0.82360537109375,-6.530185028076171,7.281964349365234,-0.732421875,-3.11279296875,-1.3427734375
1781061930.1143425,0.7900865478515624,-6.546944439697265,7.2903440551757805,-1.0986328125,-2.62451171875,-0.9765625
1781061930.1183424,0.8044517578125,-6.5218053222656245,7.2532339294433585,-0.79345703125,-2.74658203125,-0.91552734375
1781061930.1223423,0.8032546569824218,-6.532579229736328,7.254431030273437,-1.03759765625,-2.8076171875,-0.91552734375
1781061930.1263423,0.8355763793945312,-6.542156036376952,7.264007836914062,-0.91552734375,-3.0517578125,-0.3662109375
1781061930.1303117,0.8559270935058593,-6.5601125488281244,7.243657122802734,-0.67138671875,-3.173828125,0.1220703125
1781061930.1343117,0.8319850769042968,-6.536170532226562,7.275978845214843,-0.67138671875,-3.173828125,0.244140625
1781061930.1383116,0.843956085205078,-6.518214019775391,7.298723760986328,-0.8544921875,-3.41796875,0.6103515625
1781061930.1423116,0.8511386901855468,-6.524199523925781,7.280767248535156,-0.8544921875,-3.35693359375,0.79345703125
1781061930.146301,0.8475473876953125,-6.523002423095702,7.286752752685547,-0.732421875,-3.5400390625,1.40380859375
1781061930.150301,0.8367734802246093,-6.554127044677734,7.308300567626953,-1.03759765625,-3.5400390625,1.708984375
1781061930.154301,0.853532891845703,-6.545747338867187,7.293935357666015,-0.9765625,-3.35693359375,1.5869140625
1781061930.1583009,0.842758984375,-6.555324145507812,7.281964349365234,-0.9765625,-3.5400390625,2.01416015625
1781061930.1623008,0.86191259765625,-6.5768719604492185,7.256825231933593,-0.79345703125,-3.35693359375,2.01416015625
1781061930.1663008,0.8559270935058593,-6.573280657958984,7.256825231933593,-1.03759765625,-3.0517578125,1.89208984375
1781061930.1703007,0.843956085205078,-6.6319385986328125,7.229291912841797,-0.91552734375,-2.9296875,2.0751953125
1781061930.1743007,0.8631096984863281,-6.654683514404296,7.201758593749999,-1.15966796875,-2.86865234375,1.953125
1781061930.1783006,0.8870517150878906,-6.647500909423828,7.18859048461914,-1.0986328125,-2.8076171875,1.77001953125
1781061930.1823006,0.8547299926757812,-6.635529901123046,7.195773089599609,-0.9765625,-2.8076171875,1.8310546875
1781061930.1863005,0.8391676818847655,-6.6319385986328125,7.193378887939453,-0.8544921875,-2.5634765625,1.89208984375
1781061930.1903005,0.852335791015625,-6.612784985351562,7.189787585449218,-0.91552734375,-2.5634765625,1.64794921875
1781061930.1943004,0.8379705810546875,-6.5768719604492185,7.181407879638671,-1.0986328125,-2.25830078125,1.89208984375
1781061930.1983004,0.833182177734375,-6.545747338867187,7.184999182128906,-1.03759765625,-2.3193359375,1.8310546875
1781061930.2023003,0.8571241943359375,-6.537367633056641,7.199364392089843,-1.03759765625,-2.50244140625,2.13623046875
1781061930.2063003,0.842758984375,-6.53138212890625,7.224503509521484,-1.0986328125,-2.685546875,2.3193359375
1781061930.2103002,0.8355763793945312,-6.542156036376952,7.238868719482421,-1.40380859375,-2.44140625,2.685546875
1781061930.2143002,0.8283937744140625,-6.5505357421875,7.248445526123047,-1.46484375,-2.9296875,2.99072265625
1781061930.2183,0.8355763793945312,-6.517016918945312,7.266402038574219,-1.5869140625,-3.173828125,3.41796875
1781061930.2223,0.8595183959960937,-6.5505357421875,7.271190441894531,-1.77001953125,-3.41796875,3.2958984375
1781061930.2263,0.82360537109375,-6.546944439697265,7.299920861816406,-1.89208984375,-3.72314453125,3.41796875
1781061930.2303,0.8379705810546875,-6.570886456298828,7.2903440551757805,-1.77001953125,-3.72314453125,3.84521484375
1781061930.2343,0.8451531860351562,-6.5409589355468745,7.268796240234375,-1.89208984375,-3.84521484375,4.150390625
1781061930.2382998,0.8571241943359375,-6.552929943847656,7.2723875427246085,-1.89208984375,-4.0283203125,4.45556640625
1781061930.2422998,0.8367734802246093,-6.5756748596191406,7.240065820312499,-1.708984375,-3.84521484375,4.57763671875
1781061930.2462997,0.8607154968261719,-6.561309649658202,7.24605132446289,-1.52587890625,-3.72314453125,4.33349609375
1781061930.2502997,0.8607154968261719,-6.533776330566406,7.249642626953125,-1.708984375,-3.90625,4.45556640625
1781061930.2542996,0.8667010009765624,-6.533776330566406,7.235277416992187,-1.64794921875,-3.662109375,4.69970703125
1781061930.2582996,0.8786720092773437,-6.519411120605469,7.248445526123047,-1.28173828125,-3.47900390625,4.8828125
1781061930.2622995,0.8894459167480468,-6.5206082214355465,7.262810736083984,-1.708984375,-3.35693359375,4.8828125
1781061930.2662995,0.9074024291992187,-6.506243011474609,7.275978845214843,-1.40380859375,-3.47900390625,4.8828125
1781061930.2702994,0.8942343200683593,-6.536170532226562,7.266402038574219,-1.708984375,-3.41796875,4.94384765625
1781061930.2742994,0.9157821350097656,-6.555324145507812,7.261613635253906,-2.01416015625,-3.11279296875,5.06591796875
1781061930.2782993,0.8894459167480468,-6.5780690612792965,7.271190441894531,-2.13623046875,-3.35693359375,5.31005859375
1781061930.2822993,0.8894459167480468,-6.5780690612792965,7.264007836914062,-2.25830078125,-3.23486328125,5.0048828125
1781061930.2862992,0.9002198242187499,-6.581660363769531,7.2532339294433585,-2.38037109375,-3.11279296875,5.0048828125
1781061930.2902992,0.8714894042968749,-6.600813977050781,7.26520493774414,-2.62451171875,-2.9296875,4.69970703125
1781061930.2942991,0.8906430175781249,-6.637924102783202,7.269993341064453,-2.38037109375,-2.9296875,4.57763671875
1781061930.298299,0.8714894042968749,-6.625953094482422,7.269993341064453,-2.0751953125,-2.99072265625,4.5166015625
1781061930.302299,0.9026140258789062,-6.628347296142578,7.264007836914062,-1.953125,-2.9296875,4.5166015625
1781061930.306299,0.9229647399902343,-6.655880615234374,7.266402038574219,-1.89208984375,-3.0517578125,4.21142578125
1781061930.310299,0.8798691101074219,-6.647500909423828,7.287949853515625,-1.5869140625,-3.0517578125,4.0283203125
1781061930.3142989,0.8882488159179687,-6.657077716064452,7.269993341064453,-1.708984375,-2.62451171875,3.84521484375
1781061930.3182988,0.8798691101074219,-6.653486413574218,7.299920861816406,-1.52587890625,-2.3193359375,3.84521484375
1781061930.3222988,0.9026140258789062,-6.678625531005859,7.274781744384765,-1.3427734375,-2.74658203125,3.7841796875
1781061930.3262987,0.9074024291992187,-6.6510922119140625,7.316680273437499,-1.52587890625,-2.50244140625,3.7841796875
1781061930.3302987,0.9301473449707031,-6.641515405273437,7.331045483398437,-1.64794921875,-2.86865234375,3.60107421875
1781061930.3342972,0.9205705383300781,-6.6271501953125,7.359775903320312,-1.52587890625,-2.685546875,3.41796875
1781061930.3382971,0.948103857421875,-6.618770489501952,7.375338214111328,-1.77001953125,-2.5634765625,3.41796875
1781061930.3422873,0.9433154541015625,-6.6331356994628905,7.3478048950195305,-1.52587890625,-2.62451171875,3.47900390625
1781061930.3462873,0.949300958251953,-6.653486413574218,7.340622290039062,-1.77001953125,-2.3193359375,3.41796875
1781061930.3502872,0.9169792358398436,-6.648698010253906,7.340622290039062,-1.708984375,-2.38037109375,2.99072265625
1781061930.3542202,0.9229647399902343,-6.675034228515624,7.316680273437499,-1.5869140625,-1.89208984375,3.173828125
1781061930.3581944,0.93852705078125,-6.663063220214843,7.314286071777343,-1.46484375,-1.5869140625,2.8076171875
1781061930.3621943,0.9576806640625,-6.673837127685546,7.343016491699219,-1.52587890625,-1.46484375,2.74658203125
1781061930.3661942,0.9840168823242187,-6.681019732666015,7.278373046874999,-1.40380859375,-1.3427734375,2.62451171875
1781061930.3701293,0.9528922607421875,-6.691793640136718,7.278373046874999,-1.0986328125,-0.8544921875,2.44140625
1781061930.3741293,0.9516951599121093,-6.675034228515624,7.260416534423828,-0.91552734375,-0.79345703125,2.13623046875
1781061930.3781292,0.9540893615722655,-6.712144354248046,7.237671618652343,-0.732421875,-0.3662109375,1.46484375
1781061930.3821292,0.93852705078125,-6.695384942626953,7.240065820312499,-0.8544921875,-0.30517578125,1.5869140625
1781061930.3860939,0.9241618408203125,-6.70975015258789,7.238868719482421,-0.8544921875,-0.3662109375,1.220703125
1781061930.3900938,0.949300958251953,-6.697779144287109,7.238868719482421,-0.91552734375,-0.244140625,0.9765625
1781061930.3940938,0.9301473449707031,-6.700173345947265,7.248445526123047,-0.9765625,0.0,1.03759765625
1781061930.3980937,0.9421183532714843,-6.702567547607422,7.26520493774414,-0.9765625,-0.18310546875,0.8544921875
1781061930.4020936,0.9564835632324218,-6.706158850097656,7.268796240234375,-1.0986328125,-0.30517578125,0.67138671875
1781061930.4060936,0.9540893615722655,-6.6714429260253905,7.271190441894531,-1.3427734375,-0.6103515625,0.6103515625
1781061930.4100935,0.978031378173828,-6.681019732666015,7.275978845214843,-1.220703125,-0.732421875,0.54931640625
1781061930.4140935,0.9528922607421875,-6.68461103515625,7.287949853515625,-1.15966796875,-0.79345703125,0.48828125
1781061930.4180934,0.9947907897949219,-6.676231329345702,7.24605132446289,-1.3427734375,-0.79345703125,0.48828125
1781061930.4220934,0.9792284790039062,-6.697779144287109,7.240065820312499,-0.91552734375,-0.9765625,0.6103515625
1781061930.4260933,0.9732429748535155,-6.640318304443359,7.212532501220703,-0.8544921875,-0.8544921875,0.3662109375
1781061930.4300933,0.9816226806640624,-6.6522893127441405,7.208941198730468,-0.732421875,-1.0986328125,0.54931640625
1781061930.4340932,0.9971849914550781,-6.676231329345702,7.182604980468749,-0.54931640625,-1.03759765625,0.54931640625
1781061930.4380932,0.9852139831542969,-6.640318304443359,7.183802081298828,-0.18310546875,-1.220703125,0.42724609375
1781061930.4420931,1.01514150390625,-6.636727001953124,7.163451367187499,-0.18310546875,-1.40380859375,0.54931640625
1781061930.4460804,1.0019733947753906,-6.618770489501952,7.1586629638671875,-0.1220703125,-1.3427734375,0.6103515625
1781061930.4500804,1.0031704956054688,-6.6271501953125,7.146691955566406,0.06103515625,-1.40380859375,0.732421875
1781061930.4540803,0.9983820922851562,-6.598419775390624,7.135918048095703,0.1220703125,-1.15966796875,0.67138671875
1781061930.4580803,0.9995791931152344,-6.58884296875,7.141903552246093,-0.06103515625,-1.40380859375,0.8544921875
1781061930.4620802,0.9911994873046874,-6.590040069580078,7.153874560546875,-0.244140625,-0.9765625,0.79345703125
1781061930.4660802,0.9612719665527343,-6.591237170410156,7.145494854736327,-0.48828125,-1.03759765625,0.79345703125
1781061930.4700801,0.9756371765136718,-6.5780690612792965,7.157465863037109,-0.54931640625,-0.79345703125,0.79345703125
1781061930.47408,0.9876081848144531,-6.5948284729003905,7.168239770507812,-0.9765625,-0.30517578125,0.67138671875
1781061930.47808,0.9900023864746094,-6.600813977050781,7.195773089599609,-1.220703125,0.0,0.6103515625
1781061930.48208,0.9648632690429687,-6.603208178710937,7.210138299560547,-1.953125,-0.06103515625,0.3662109375
1781061930.48608,0.967257470703125,-6.600813977050781,7.216123803710937,-2.01416015625,0.42724609375,0.30517578125
1781061930.4900799,0.9229647399902343,-6.616376287841796,7.224503509521484,-2.44140625,1.03759765625,0.244140625
1781061930.4940798,0.9504980590820312,-6.618770489501952,7.20774409790039,-2.50244140625,1.03759765625,0.244140625
1781061930.4980798,0.9409212524414062,-6.661866119384765,7.230489013671875,-2.685546875,1.3427734375,-0.1220703125
1781061930.5020797,0.9349357482910156,-6.7037646484375,7.218518005371093,-2.62451171875,1.52587890625,-0.244140625
1781061930.5060797,0.9361328491210937,-6.734889270019531,7.22689771118164,-3.0517578125,1.28173828125,-0.30517578125
1781061930.5100796,0.9181763366699218,-6.72890376586914,7.252036828613281,-3.173828125,1.52587890625,-0.42724609375
1781061930.5140796,0.9002198242187499,-6.762422589111328,7.2532339294433585,-3.5400390625,1.52587890625,-0.42724609375
1781061930.5180795,0.9014169250488281,-6.8031240173339835,7.268796240234375,-3.5400390625,1.8310546875,-0.67138671875
1781061930.5220795,0.9026140258789062,-6.831854437255859,7.26520493774414,-3.35693359375,1.8310546875,-0.732421875
1781061930.5260794,0.8822633117675781,-6.873752966308594,7.264007836914062,-3.173828125,1.89208984375,-0.8544921875
1781061930.5300794,0.8858546142578124,-6.884526873779296,7.256825231933593,-2.62451171875,1.8310546875,-0.9765625
1781061930.5340793,0.8750807067871094,-6.892906579589844,7.222109307861328,-2.38037109375,1.89208984375,-1.0986328125
1781061930.5380793,0.8702923034667969,-6.931213806152344,7.220912207031249,-1.953125,2.3193359375,-1.03759765625
1781061930.5420792,0.9014169250488281,-6.963535528564453,7.219715106201171,-1.3427734375,2.3193359375,-1.03759765625
1781061930.5460792,0.8607154968261719,-6.9539587219238275,7.204152795410156,-0.67138671875,2.38037109375,-1.3427734375
1781061930.550079,0.8655039001464844,-6.9527616210937495,7.225700610351562,-0.244140625,2.197265625,-1.3427734375
1781061930.554079,0.8475473876953125,-6.965929730224609,7.235277416992187,0.3662109375,2.197265625,-1.0986328125
1781061930.558079,0.8116343627929687,-6.913257293701172,7.242460021972656,0.79345703125,2.197265625,-1.0986328125
1781061930.562079,0.8212111694335937,-6.906074688720703,7.240065820312499,1.15966796875,2.3193359375,-1.40380859375
1781061930.566079,0.8259995727539062,-6.867767462158203,7.244854223632812,1.3427734375,1.8310546875,-1.0986328125
1781061930.5700788,0.8200140686035156,-6.829460235595703,7.267599139404297,1.708984375,1.89208984375,-1.3427734375
1781061930.5740788,0.8164227661132812,-6.830657336425781,7.283161450195312,1.52587890625,1.5869140625,-1.15966796875
1781061930.5780787,0.8128314636230468,-6.788758807373046,7.273584643554687,1.8310546875,1.220703125,-1.03759765625
1781061930.5820787,0.824802471923828,-6.792350109863281,7.261613635253906,1.64794921875,1.28173828125,-1.15966796875
1781061930.5860786,0.7876923461914062,-6.763619689941406,7.247248425292969,1.64794921875,1.03759765625,-1.0986328125
1781061930.5900786,0.7876923461914062,-6.752845782470703,7.222109307861328,1.64794921875,0.6103515625,-1.15966796875
1781061930.5940785,0.8080430603027343,-6.691793640136718,7.247248425292969,1.46484375,0.30517578125,-1.03759765625
1781061930.5980618,0.7972691528320313,-6.675034228515624,7.218518005371093,1.220703125,0.1220703125,-1.0986328125
1781061930.6020617,0.7960720520019531,-6.635529901123046,7.229291912841797,1.15966796875,-0.244140625,-1.0986328125
1781061930.6060617,0.8224082702636718,-6.592434271240234,7.244854223632812,0.79345703125,-0.6103515625,-0.91552734375
1781061930.6100616,0.8056488586425781,-6.566098052978515,7.254431030273437,0.6103515625,-0.91552734375,-0.9765625
1781061930.6140616,0.814028564453125,-6.5601125488281244,7.274781744384765,0.0,-1.220703125,-1.220703125
1781061930.6180615,0.834379278564453,-6.5780690612792965,7.252036828613281,0.1220703125,-1.52587890625,-1.15966796875
1781061930.6220615,0.8116343627929687,-6.570886456298828,7.24605132446289,-0.3662109375,-1.708984375,-1.15966796875
1781061930.6260614,0.8307879760742187,-6.586448767089843,7.213729602050781,-0.3662109375,-1.8310546875,-1.03759765625
1781061930.6300614,0.843956085205078,-6.590040069580078,7.204152795410156,-0.732421875,-1.8310546875,-0.91552734375
1781061930.6340613,0.834379278564453,-6.573280657958984,7.199364392089843,-0.9765625,-2.197265625,-0.9765625
1781061930.6380613,0.843956085205078,-6.5948284729003905,7.199364392089843,-0.91552734375,-2.13623046875,-1.220703125
1781061930.6420612,0.8667010009765624,-6.606799481201172,7.18859048461914,-1.0986328125,-1.953125,-1.3427734375
1781061930.6460612,0.86191259765625,-6.616376287841796,7.174225274658203,-0.91552734375,-2.25830078125,-1.40380859375
1781061930.6500611,0.8667010009765624,-6.610390783691406,7.183802081298828,-1.0986328125,-2.50244140625,-1.46484375
1781061930.654061,0.8511386901855468,-6.612784985351562,7.20774409790039,-1.15966796875,-2.50244140625,-1.52587890625
1781061930.658061,0.8487444885253905,-6.5972226745605465,7.198167291259765,-1.3427734375,-2.38037109375,-1.220703125
1781061930.662061,0.8403647827148437,-6.587645867919922,7.183802081298828,-1.28173828125,-2.44140625,-1.46484375
1781061930.666061,0.8403647827148437,-6.599616876220702,7.186196282958984,-1.15966796875,-2.44140625,-1.64794921875
1781061930.6700609,0.8511386901855468,-6.581660363769531,7.175422375488281,-1.40380859375,-2.50244140625,-1.5869140625
1781061930.6740608,0.8451531860351562,-6.5948284729003905,7.176619476318359,-1.3427734375,-2.25830078125,-2.01416015625
1781061930.6780608,0.853532891845703,-6.625953094482422,7.194575988769531,-1.52587890625,-2.25830078125,-2.01416015625
1781061930.6820607,0.8678981018066406,-6.639121203613281,7.241262921142578,-1.64794921875,-2.50244140625,-1.708984375
1781061930.6860125,0.8774749084472656,-6.621164691162109,7.267599139404297,-1.89208984375,-2.44140625,-1.953125
1781061930.6900125,0.8894459167480468,-6.653486413574218,7.262810736083984,-2.01416015625,-2.8076171875,-1.8310546875
1781061930.6940124,0.8714894042968749,-6.643909606933593,7.281964349365234,-2.01416015625,-3.0517578125,-2.01416015625
1781061930.6980124,0.8966285217285156,-6.659471917724609,7.278373046874999,-1.953125,-3.11279296875,-1.708984375
1781061930.7020123,0.8942343200683593,-6.6905965393066404,7.219715106201171,-1.89208984375,-3.11279296875,-2.01416015625
1781061930.7060122,0.9253589416503906,-6.701370446777343,7.211335400390625,-1.77001953125,-2.86865234375,-2.01416015625
1781061930.7100122,0.8978256225585937,-6.695384942626953,7.193378887939453,-1.46484375,-2.99072265625,-1.953125
1781061930.7140121,0.8966285217285156,-6.715735656738281,7.183802081298828,-1.46484375,-2.74658203125,-2.0751953125
1781061930.718012,0.9337386474609375,-6.707355950927734,7.182604980468749,-1.03759765625,-2.5634765625,-2.25830078125
1781061930.722012,0.9217676391601562,-6.692990740966796,7.162254266357421,-0.91552734375,-2.25830078125,-2.13623046875
1781061930.726012,0.9193734375,-6.715735656738281,7.162254266357421,-0.9765625,-2.0751953125,-2.38037109375
1781061930.730012,0.939724151611328,-6.692990740966796,7.182604980468749,-0.9765625,-1.89208984375,-2.3193359375
1781061930.734012,0.9241618408203125,-6.679822631835937,7.222109307861328,-1.03759765625,-1.89208984375,-2.62451171875
1781061930.7380118,0.9277531433105468,-6.682216833496093,7.217320904541015,-1.0986328125,-1.40380859375,-2.62451171875
1781061930.7420118,0.9361328491210937,-6.6510922119140625,7.24605132446289,-1.28173828125,-1.46484375,-2.5634765625
1781061930.7460117,0.9229647399902343,-6.637924102783202,7.250839727783203,-1.8310546875,-0.79345703125,-2.38037109375
1781061930.7500117,0.9229647399902343,-6.665457421875,7.262810736083984,-1.64794921875,-1.03759765625,-2.01416015625
1781061930.7540116,0.928950244140625,-6.6522893127441405,7.266402038574219,-2.197265625,-0.67138671875,-1.708984375
1781061930.7580116,0.9325415466308593,-6.664260321044922,7.269993341064453,-2.13623046875,-0.3662109375,-1.40380859375
1781061930.7620115,0.9313444458007812,-6.665457421875,7.271190441894531,-2.13623046875,-0.732421875,-1.03759765625
1781061930.7660115,0.9660603698730468,-6.696582043457031,7.277175946044921,-2.62451171875,-0.3662109375,-0.8544921875
1781061930.7700114,0.9349357482910156,-6.6714429260253905,7.26520493774414,-2.13623046875,-0.1220703125,-0.18310546875
1781061930.7740114,0.9469067565917968,-6.698976245117187,7.260416534423828,-2.13623046875,0.18310546875,0.30517578125
1781061930.7780113,0.9576806640625,-6.701370446777343,7.271190441894531,-2.13623046875,0.1220703125,0.54931640625
1781061930.7820113,0.9552864624023437,-6.726509564208984,7.279570147705078,-1.8310546875,0.244140625,0.9765625
1781061930.7860112,0.9648632690429687,-6.710947253417968,7.275978845214843,-1.64794921875,0.244140625,1.46484375
1781061930.7900112,0.968454571533203,-6.726509564208984,7.279570147705078,-1.15966796875,0.244140625,1.8310546875
1781061930.794011,0.9756371765136718,-6.742071875,7.277175946044921,-0.91552734375,0.54931640625,2.01416015625
1781061930.798011,0.958877764892578,-6.743268975830078,7.273584643554687,-0.48828125,0.30517578125,2.50244140625
1781061930.802011,0.9660603698730468,-6.72291826171875,7.248445526123047,-0.18310546875,0.8544921875,2.50244140625
1781061930.806011,0.949300958251953,-6.70975015258789,7.237671618652343,0.244140625,1.15966796875,2.62451171875
1781061930.810011,0.9433154541015625,-6.685808135986328,7.238868719482421,0.1220703125,1.46484375,2.5634765625
1781061930.8140109,0.9648632690429687,-6.742071875,7.252036828613281,0.54931640625,1.64794921875,2.50244140625
1781061930.8180108,0.9552864624023437,-6.707355950927734,7.249642626953125,0.732421875,1.953125,2.5634765625
1781061930.8220108,0.939724151611328,-6.691793640136718,7.219715106201171,0.8544921875,1.708984375,2.01416015625
1781061930.8260107,0.9325415466308593,-6.685808135986328,7.225700610351562,0.9765625,1.89208984375,2.0751953125
1781061930.8300107,0.9528922607421875,-6.654683514404296,7.234080316162109,0.54931640625,2.01416015625,1.8310546875
1781061930.8340106,0.9157821350097656,-6.612784985351562,7.235277416992187,0.79345703125,1.953125,1.46484375
1781061930.8380105,0.9205705383300781,-6.623558892822265,7.231686114501953,0.8544921875,1.89208984375,0.79345703125
1781061930.8420105,0.9109937316894531,-6.6271501953125,7.2532339294433585,0.54931640625,1.953125,0.6103515625
1781061930.8460104,0.9229647399902343,-6.612784985351562,7.258022332763671,0.3662109375,1.708984375,0.6103515625
1781061930.8500104,0.9002198242187499,-6.6331356994628905,7.243657122802734,0.30517578125,1.64794921875,0.0
1781061930.8540103,0.8990227233886718,-6.623558892822265,7.228094812011718,-0.06103515625,1.52587890625,-0.30517578125
1781061930.8580103,0.8978256225585937,-6.587645867919922,7.24605132446289,-0.48828125,1.40380859375,-0.8544921875
1781061930.8620102,0.8738836059570312,-6.604405279541015,7.231686114501953,-0.9765625,1.46484375,-1.15966796875
1781061930.8660102,0.8583212951660156,-6.584054565429687,7.241262921142578,-1.46484375,1.40380859375,-1.40380859375
1781061930.8700101,0.8607154968261719,-6.604405279541015,7.235277416992187,-1.77001953125,1.15966796875,-1.5869140625
1781061930.87401,0.8547299926757812,-6.592434271240234,7.273584643554687,-1.953125,1.03759765625,-1.46484375
1781061930.8779373,0.8403647827148437,-6.566098052978515,7.293935357666015,-2.50244140625,0.67138671875,-1.5869140625
1781061930.8819373,0.8463502868652343,-6.585251666259765,7.307103466796875,-2.5634765625,0.42724609375,-1.46484375
1781061930.8859372,0.8798691101074219,-6.584054565429687,7.313088970947265,-2.38037109375,0.3662109375,-1.40380859375
1781061930.8899372,0.8810662109374999,-6.5960255737304685,7.299920861816406,-2.25830078125,0.0,-1.15966796875
1781061930.893937,0.8702923034667969,-6.593631372070312,7.310694769287109,-2.197265625,-0.1220703125,-1.03759765625
1781061930.897937,0.8655039001464844,-6.6139820861816405,7.283161450195312,-1.77001953125,-0.6103515625,-0.48828125
1781061930.901926,0.9109937316894531,-6.618770489501952,7.277175946044921,-1.89208984375,-0.6103515625,0.0
1781061930.905926,0.8990227233886718,-6.599616876220702,7.260416534423828,-1.46484375,-1.03759765625,0.1220703125
1781061930.909926,0.9074024291992187,-6.609193682861328,7.243657122802734,-1.220703125,-0.9765625,0.30517578125
1781061930.913883,0.8954314208984374,-6.609193682861328,7.237671618652343,-1.0986328125,-0.9765625,0.79345703125
1781061930.917883,0.9050082275390624,-6.636727001953124,7.244854223632812,-0.9765625,-1.03759765625,0.91552734375
1781061930.9218829,0.9217676391601562,-6.6331356994628905,7.223306408691406,-1.0986328125,-1.03759765625,1.03759765625
1781061930.9258828,0.9133879333496093,-6.636727001953124,7.225700610351562,-1.03759765625,-0.8544921875,1.28173828125
1781061930.9298828,0.9265560424804687,-6.629544396972656,7.232883215332031,-1.03759765625,-0.8544921875,1.28173828125
1781061930.9338827,0.9421183532714843,-6.637924102783202,7.266402038574219,-1.0986328125,-0.732421875,1.3427734375
1781061930.9378827,0.9313444458007812,-6.655880615234374,7.292738256835937,-1.28173828125,-0.6103515625,1.15966796875
1781061930.9418826,0.9552864624023437,-6.661866119384765,7.301117962646484,-1.40380859375,-0.3662109375,1.0986328125
1781061930.9458826,0.9433154541015625,-6.706158850097656,7.30351216430664,-1.708984375,-0.244140625,1.15966796875
1781061930.9498584,0.9696516723632812,-6.7085530517578125,7.307103466796875,-2.01416015625,0.06103515625,0.91552734375
1781061930.9538584,0.948103857421875,-6.716932757568359,7.301117962646484,-2.197265625,-0.1220703125,0.8544921875
1781061930.957816,0.9540893615722655,-6.7277066650390625,7.295132458496093,-2.197265625,0.1220703125,0.8544921875
1781061930.9618158,0.9265560424804687,-6.752845782470703,7.295132458496093,-2.0751953125,0.06103515625,0.732421875
1781061930.9658158,0.9313444458007812,-6.755239984130859,7.2903440551757805,-2.01416015625,0.3662109375,0.732421875
1781061930.9698157,0.9624690673828125,-6.76122548828125,7.283161450195312,-1.953125,0.79345703125,0.67138671875
1781061930.9738157,0.9624690673828125,-6.760028387451172,7.26520493774414,-1.708984375,0.67138671875,0.54931640625
1781061930.9778156,0.9708487731933593,-6.787561706542968,7.260416534423828,-1.64794921875,0.91552734375,0.48828125
1781061930.9818156,0.9708487731933593,-6.798335614013672,7.252036828613281,-1.46484375,1.15966796875,0.67138671875
1781061930.9858155,0.9732429748535155,-6.795941412353515,7.264007836914062,-1.220703125,1.03759765625,0.9765625
1781061930.9898155,0.9540893615722655,-6.787561706542968,7.243657122802734,-1.0986328125,1.52587890625,1.03759765625
1781061930.9937115,0.9409212524414062,-6.781576202392578,7.248445526123047,-0.67138671875,1.3427734375,1.3427734375
1781061930.9977033,0.9516951599121093,-6.798335614013672,7.249642626953125,-0.732421875,1.03759765625,1.5869140625
1781061931.0017033,0.93852705078125,-6.788758807373046,7.277175946044921,-0.6103515625,0.91552734375,1.89208984375
1781061931.0057032,0.9337386474609375,-6.793547210693359,7.277175946044921,-0.732421875,1.15966796875,2.01416015625
1781061931.0097032,0.9121908325195311,-6.811503723144531,7.26520493774414,-0.67138671875,0.67138671875,2.0751953125
1781061931.013703,0.9109937316894531,-6.804321118164062,7.2723875427246085,-0.6103515625,0.732421875,2.25830078125
1781061931.017703,0.8978256225585937,-6.78636460571289,7.295132458496093,-0.6103515625,0.54931640625,2.50244140625
1781061931.021703,0.9002198242187499,-6.794744311523437,7.289146954345703,-0.54931640625,0.3662109375,2.50244140625
1781061931.025703,0.9121908325195311,-6.7803791015625,7.283161450195312,-0.6103515625,-0.1220703125,2.50244140625
1781061931.029703,0.9097966308593749,-6.770802294921874,7.281964349365234,-0.54931640625,-0.48828125,2.74658203125
1781061931.0337029,0.8870517150878906,-6.76721099243164,7.279570147705078,-0.48828125,-1.03759765625,2.44140625
1781061931.0377028,0.9062053283691406,-6.749254479980468,7.269993341064453,-0.79345703125,-1.3427734375,2.50244140625
1781061931.0417027,0.9409212524414062,-6.750451580810546,7.234080316162109,-0.54931640625,-1.64794921875,2.5634765625
1781061931.0457027,0.9253589416503906,-6.756437084960937,7.267599139404297,-0.6103515625,-1.89208984375,2.38037109375
1781061931.0497026,0.949300958251953,-6.736086370849609,7.24605132446289,-0.67138671875,-2.44140625,2.197265625
1781061931.0537026,0.9612719665527343,-6.737283471679687,7.259219433593749,-0.54931640625,-2.44140625,2.0751953125
1781061931.0577025,0.968454571533203,-6.734889270019531,7.214926702880859,-0.48828125,-2.8076171875,1.5869140625
1781061931.0617025,0.968454571533203,-6.731297967529296,7.240065820312499,-0.244140625,-3.0517578125,1.3427734375
1781061931.0657024,0.9720458740234375,-6.724115362548828,7.225700610351562,-0.54931640625,-3.5400390625,0.8544921875
1781061931.0697024,1.005564697265625,-6.740874774169922,7.212532501220703,-0.48828125,-3.72314453125,0.6103515625
1781061931.0737023,0.9888052856445312,-6.752845782470703,7.193378887939453,-0.42724609375,-3.72314453125,0.18310546875
1781061931.0777023,0.9983820922851562,-6.743268975830078,7.16943687133789,-0.42724609375,-3.84521484375,-0.244140625
1781061931.0817022,1.0175357055664063,-6.740874774169922,7.149086157226562,-0.06103515625,-3.7841796875,-0.54931640625
1781061931.0857022,1.016338604736328,-6.713341455078124,7.15028325805664,-0.1220703125,-3.5400390625,-1.03759765625
1781061931.0897021,1.0342951171875,-6.701370446777343,7.134720947265625,0.06103515625,-3.60107421875,-1.220703125
1781061931.093702,1.045069024658203,-6.676231329345702,7.145494854736327,0.42724609375,-3.0517578125,-1.708984375
1781061931.097702,1.0402806213378906,-6.679822631835937,7.162254266357421,0.54931640625,-2.99072265625,-1.953125
1781061931.101702,1.0558429321289062,-6.630741497802734,7.173028173828125,0.244140625,-2.685546875,-2.01416015625
1781061931.105702,1.0690110412597655,-6.649895111083984,7.16943687133789,0.1220703125,-2.5634765625,-2.3193359375
1781061931.1097019,1.0845733520507812,-6.6510922119140625,7.204152795410156,0.3662109375,-2.3193359375,-2.38037109375
1781061931.1137018,1.083376251220703,-6.692990740966796,7.211335400390625,-0.1220703125,-2.25830078125,-2.25830078125
1781061931.1177018,1.0761936462402344,-6.6714429260253905,7.189787585449218,-0.18310546875,-2.01416015625,-2.3193359375
1781061931.1217017,1.064222637939453,-6.653486413574218,7.206546997070312,-0.18310546875,-1.77001953125,-2.5634765625
1781061931.1257017,1.0510545288085937,-6.664260321044922,7.223306408691406,-0.67138671875,-1.8310546875,-2.44140625
1781061931.1297016,1.0534487304687499,-6.692990740966796,7.212532501220703,-0.8544921875,-1.40380859375,-2.50244140625
1781061931.1337016,1.042674822998047,-6.734889270019531,7.214926702880859,-0.91552734375,-1.15966796875,-2.5634765625
1781061931.1377015,1.024718310546875,-6.716932757568359,7.244854223632812,-0.9765625,-1.0986328125,-2.50244140625
1781061931.1417015,1.0342951171875,-6.770802294921874,7.235277416992187,-0.67138671875,-0.67138671875,-2.62451171875
1781061931.1457014,1.0534487304687499,-6.7839704040527335,7.220912207031249,-0.8544921875,-0.79345703125,-2.62451171875
1781061931.1497014,1.0307038146972656,-6.776787799072265,7.212532501220703,-0.79345703125,-1.03759765625,-2.685546875
1781061931.1537013,1.061828436279297,-6.795941412353515,7.242460021972656,-0.42724609375,-0.9765625,-2.62451171875
1781061931.1577013,1.0474632263183594,-6.792350109863281,7.212532501220703,-0.06103515625,-0.9765625,-2.3193359375
1781061931.1617012,1.0307038146972656,-6.793547210693359,7.205349896240234,0.30517578125,-1.28173828125,-2.197265625
1781061931.1657012,1.0307038146972656,-6.752845782470703,7.1586629638671875,0.732421875,-1.15966796875,-2.197265625
1781061931.169701,1.0594342346191405,-6.762422589111328,7.132326745605468,1.15966796875,-1.0986328125,-2.197265625
1781061931.173701,1.0785878479003905,-6.7277066650390625,7.125144140624999,1.708984375,-0.8544921875,-1.708984375
1781061931.177701,1.0570400329589844,-6.694187841796874,7.096413720703125,2.8076171875,-0.91552734375,-1.708984375
1781061931.181701,1.0761936462402344,-6.660669018554687,7.089231115722656,2.74658203125,-0.67138671875,-1.708984375
1781061931.1856892,1.0630255371093749,-6.623558892822265,7.076063006591797,3.0517578125,-0.3662109375,-1.8310546875
1781061931.1896892,1.064222637939453,-6.618770489501952,7.090428216552734,3.0517578125,0.0,-1.5869140625
1781061931.193689,1.0977414611816405,-6.586448767089843,7.11197603149414,2.9296875,0.06103515625,-1.46484375
1781061931.1976566,1.061828436279297,-6.562506750488281,7.127538342285156,2.44140625,0.54931640625,-1.46484375
1781061931.2016566,1.0414777221679687,-6.555324145507812,7.1407064514160155,2.0751953125,0.42724609375,-1.3427734375
1781061931.2056565,1.0414777221679687,-6.555324145507812,7.1407064514160155,2.0751953125,0.42724609375,-1.3427734375
1781061931.2096565,1.0378864196777342,-6.530185028076171,7.146691955566406,1.40380859375,0.79345703125,-1.46484375
1781061931.2136564,1.0139444030761717,-6.527790826416015,7.1586629638671875,0.79345703125,0.9765625,-1.46484375
1781061931.2176564,0.9852139831542969,-6.53138212890625,7.167042669677734,0.732421875,0.91552734375,-1.52587890625
1781061931.2216563,0.9971849914550781,-6.528987927246093,7.141903552246093,-0.3662109375,1.5869140625,-1.5869140625
1781061931.2256563,1.0031704956054688,-6.586448767089843,7.175422375488281,-0.8544921875,1.5869140625,-1.3427734375
1781061931.2296562,0.97683427734375,-6.605602380371093,7.176619476318359,-1.15966796875,2.0751953125,-1.64794921875
1781061931.2336562,0.9696516723632812,-6.636727001953124,7.187393383789062,-1.77001953125,1.77001953125,-1.64794921875
1781061931.237656,0.9864110839843749,-6.658274816894531,7.206546997070312,-1.953125,2.25830078125,-1.46484375
1781061931.2415576,0.9624690673828125,-6.685808135986328,7.168239770507812,-2.197265625,1.89208984375,-1.52587890625
1781061931.2455575,0.9457096557617187,-6.710947253417968,7.174225274658203,-1.953125,1.8310546875,-1.3427734375
1781061931.2495575,0.9732429748535155,-6.7803791015625,7.167042669677734,-2.13623046875,1.3427734375,-1.220703125
1781061931.2535472,0.9421183532714843,-6.788758807373046,7.187393383789062,-1.8310546875,1.220703125,-1.220703125
1781061931.2575276,0.93852705078125,-6.807912420654296,7.192181787109375,-1.5869140625,0.8544921875,-0.91552734375
1781061931.2615275,0.9540893615722655,-6.841431243896484,7.175422375488281,-1.220703125,0.91552734375,-0.732421875
1781061931.265502,0.9612719665527343,-6.842628344726562,7.159860064697265,-0.8544921875,0.54931640625,-0.79345703125
1781061931.269502,0.9265560424804687,-6.872555865478515,7.122749938964843,-0.42724609375,0.42724609375,-0.732421875
1781061931.2735019,0.9445125549316405,-6.8569935546875,7.108384729003906,0.244140625,0.54931640625,-0.6103515625
1781061931.2775018,0.9409212524414062,-6.860584857177734,7.076063006591797,0.6103515625,0.6103515625,-0.67138671875
1781061931.2815018,0.9433154541015625,-6.84382544555664,7.049726788330077,1.28173828125,0.732421875,-0.6103515625
1781061931.2855017,0.9624690673828125,-6.84382544555664,7.056909393310547,1.8310546875,0.91552734375,-0.67138671875
1781061931.2895017,0.9696516723632812,-6.813897924804687,7.0281789733886715,2.25830078125,0.91552734375,-0.79345703125
1781061931.2935016,0.967257470703125,-6.812700823974609,7.038952880859375,2.44140625,0.91552734375,-0.732421875
1781061931.2975016,0.9935936889648437,-6.78636460571289,7.0269818725585935,2.50244140625,0.9765625,-0.8544921875
1781061931.3015015,0.967257470703125,-6.764816790771484,7.072471704101562,2.685546875,1.220703125,-1.220703125
1781061931.3055015,0.9469067565917968,-6.749254479980468,7.0844427124023435,2.74658203125,1.28173828125,-1.15966796875
1781061931.3095014,0.9445125549316405,-6.763619689941406,7.113173132324218,2.13623046875,1.0986328125,-1.46484375
1781061931.3135014,0.9241618408203125,-6.749254479980468,7.11197603149414,1.77001953125,1.28173828125,-1.5869140625
1781061931.31749,0.9193734375,-6.7085530517578125,7.144297753906249,1.64794921875,1.46484375,-1.8310546875
1781061931.32149,0.9253589416503906,-6.736086370849609,7.149086157226562,0.9765625,1.5869140625,-1.708984375
1781061931.32549,0.9217676391601562,-6.74805737915039,7.144297753906249,0.79345703125,1.64794921875,-1.8310546875
1781061931.32949,0.9145850341796874,-6.758831286621094,7.16943687133789,0.42724609375,1.46484375,-1.5869140625
1781061931.33349,0.8966285217285156,-6.776787799072265,7.171831072998047,0.244140625,1.5869140625,-1.953125
1781061931.3374898,0.9085995300292968,-6.771999395751953,7.198167291259765,0.0,1.5869140625,-2.0751953125
1781061931.3414898,0.9253589416503906,-6.7839704040527335,7.176619476318359,0.244140625,1.52587890625,-1.89208984375
1781061931.3454897,0.8942343200683593,-6.777984899902344,7.193378887939453,0.244140625,1.0986328125,-1.64794921875
1781061931.3494897,0.8822633117675781,-6.792350109863281,7.167042669677734,0.732421875,1.15966796875,-1.15966796875
1781061931.3534896,0.8930372192382812,-6.788758807373046,7.195773089599609,0.91552734375,1.03759765625,-1.28173828125
1781061931.3574896,0.8918401184082031,-6.818686328125,7.170633972167968,1.3427734375,0.6103515625,-0.91552734375
1781061931.3614895,0.8822633117675781,-6.801926916503906,7.164648468017577,1.77001953125,0.79345703125,-0.732421875
1781061931.3654895,0.8882488159179687,-6.792350109863281,7.119158636474609,2.25830078125,0.48828125,-0.54931640625
1781061931.3694894,0.8990227233886718,-6.751648681640624,7.132326745605468,2.74658203125,0.732421875,-0.30517578125
1781061931.3734894,0.8762778076171874,-6.746860278320312,7.082048510742187,2.99072265625,0.6103515625,-0.244140625
1781061931.3774893,0.8750807067871094,-6.695384942626953,7.095216619873047,3.35693359375,0.8544921875,0.0
1781061931.3814893,0.8930372192382812,-6.679822631835937,7.104793426513671,3.41796875,1.15966796875,0.06103515625
1781061931.3854892,0.9085995300292968,-6.665457421875,7.1023992248535155,3.173828125,1.40380859375,0.18310546875
1781061931.3894892,0.8954314208984374,-6.630741497802734,7.110778930664062,3.173828125,1.52587890625,0.0
1781061931.3934891,0.9109937316894531,-6.609193682861328,7.127538342285156,3.41796875,1.77001953125,0.1220703125
1781061931.397489,0.8990227233886718,-6.590040069580078,7.133523846435547,2.9296875,1.708984375,0.0
1781061931.401489,0.8870517150878906,-6.556521246337891,7.129932543945312,2.44140625,2.01416015625,-0.30517578125
1781061931.405489,0.8918401184082031,-6.568492254638672,7.1395093505859375,1.953125,2.197265625,-0.18310546875
1781061931.409489,0.8810662109374999,-6.551732843017578,7.144297753906249,1.5869140625,2.38037109375,-0.3662109375
1781061931.4134889,0.8786720092773437,-6.585251666259765,7.135918048095703,1.28173828125,2.685546875,-0.6103515625
1781061931.4174888,0.8834604125976562,-6.548141540527343,7.147889056396484,0.732421875,2.9296875,-0.91552734375
1781061931.4214888,0.843956085205078,-6.554127044677734,7.134720947265625,0.6103515625,2.99072265625,-0.9765625
1781061931.4254887,0.8655039001464844,-6.546944439697265,7.144297753906249,0.1220703125,3.35693359375,-0.8544921875
1781061931.4294887,0.8738836059570312,-6.562506750488281,7.15028325805664,0.244140625,3.47900390625,-1.15966796875
1781061931.4334886,0.8607154968261719,-6.574477758789062,7.149086157226562,0.0,3.5400390625,-0.91552734375
1781061931.4374886,0.8355763793945312,-6.573280657958984,7.176619476318359,0.06103515625,3.23486328125,-1.03759765625
1781061931.4414885,0.8391676818847655,-6.568492254638672,7.180210778808593,-0.18310546875,3.60107421875,-1.03759765625
1781061931.4454885,0.8403647827148437,-6.579266162109374,7.213729602050781,-0.1220703125,3.0517578125,-0.91552734375
1781061931.4494884,0.8307879760742187,-6.567295153808593,7.210138299560547,-0.30517578125,3.23486328125,-0.91552734375
1781061931.4534883,0.8008604553222656,-6.5768719604492185,7.217320904541015,-0.42724609375,2.99072265625,-0.54931640625
1781061931.4574883,0.8295908752441405,-6.563703851318359,7.212532501220703,-0.48828125,3.0517578125,-0.244140625
1781061931.4614882,0.7960720520019531,-6.563703851318359,7.193378887939453,-0.6103515625,2.9296875,-0.244140625
1781061931.4654882,0.7912836486816406,-6.564900952148437,7.198167291259765,-0.48828125,2.86865234375,0.1220703125
1781061931.4694881,0.7817068420410156,-6.536170532226562,7.225700610351562,-0.79345703125,2.8076171875,0.6103515625
1781061931.473488,0.7900865478515624,-6.551732843017578,7.232883215332031,-0.67138671875,2.50244140625,0.8544921875
1781061931.4774761,0.7864952453613281,-6.528987927246093,7.2532339294433585,-0.48828125,2.8076171875,1.03759765625
1781061931.481476,0.7924807495117187,-6.53138212890625,7.266402038574219,-0.732421875,2.44140625,1.28173828125
1781061931.4854736,0.7793126403808593,-6.526593725585937,7.271190441894531,-0.67138671875,2.13623046875,1.64794921875
1781061931.4894614,0.7625532287597656,-6.567295153808593,7.268796240234375,-0.732421875,1.89208984375,1.708984375
1781061931.4934614,0.7924807495117187,-6.593631372070312,7.269993341064453,-0.54931640625,1.5869140625,2.13623046875
1781061931.4974613,0.7960720520019531,-6.592434271240234,7.285555651855469,-0.54931640625,1.52587890625,2.50244140625
1781061931.5014613,0.8104372619628906,-6.605602380371093,7.277175946044921,-0.732421875,1.220703125,2.44140625
1781061931.5054612,0.7936778503417968,-6.647500909423828,7.2915411560058585,-0.91552734375,0.8544921875,2.25830078125
1781061931.5094612,0.7829039428710937,-6.677428430175781,7.283161450195312,-0.79345703125,0.8544921875,2.25830078125
1781061931.5134406,0.7613561279296874,-6.702567547607422,7.317877374267578,-0.8544921875,0.42724609375,1.89208984375
1781061931.5174286,0.7517793212890624,-6.700173345947265,7.3286512817382805,-0.8544921875,0.0,1.708984375
1781061931.5214286,0.7637503295898437,-6.7277066650390625,7.34181939086914,-0.79345703125,-0.48828125,1.52587890625
1781061931.5254285,0.7805097412109374,-6.733692169189453,7.368155609130859,-1.0986328125,-0.79345703125,1.28173828125
1781061931.5294285,0.7649474304199219,-6.760028387451172,7.369352709960937,-0.9765625,-1.0986328125,0.8544921875
1781061931.5333698,0.7876923461914062,-6.771999395751953,7.371746911621093,-1.03759765625,-1.40380859375,0.48828125
1781061931.5373278,0.7888894470214843,-6.80551821899414,7.38012661743164,-0.79345703125,-1.40380859375,0.30517578125
1781061931.5413277,0.8152256652832031,-6.828263134765624,7.364564306640625,-0.79345703125,-1.708984375,-0.06103515625
1781061931.5453277,0.8092401611328125,-6.845022546386718,7.362170104980469,-0.6103515625,-1.953125,-0.30517578125
1781061931.5493276,0.8451531860351562,-6.829460235595703,7.3478048950195305,-0.54931640625,-2.197265625,-0.79345703125
1781061931.5533276,0.842758984375,-6.849810949707031,7.344213592529297,0.0,-2.44140625,-0.8544921875
1781061931.5573275,0.852335791015625,-6.817489227294922,7.3466077941894525,0.1220703125,-2.3193359375,-0.8544921875
1781061931.5613275,0.8499415893554687,-6.807912420654296,7.364564306640625,0.30517578125,-2.50244140625,-1.28173828125
1781061931.5653274,0.9038111267089843,-6.806715319824218,7.3849150207519525,0.732421875,-2.62451171875,-1.03759765625
1781061931.5693274,0.9373299499511718,-6.775590698242187,7.375338214111328,0.91552734375,-2.74658203125,-1.3427734375
1781061931.5733273,0.9540893615722655,-6.7839704040527335,7.387309222412109,0.91552734375,-2.685546875,-1.0986328125
1781061931.5773273,0.9660603698730468,-6.74805737915039,7.353790399169921,0.9765625,-2.62451171875,-1.15966796875
1781061931.5813272,0.9612719665527343,-6.713341455078124,7.3669585083007805,1.220703125,-2.62451171875,-0.6103515625
1781061931.5853271,0.978031378173828,-6.715735656738281,7.364564306640625,1.03759765625,-2.685546875,-0.732421875
1781061931.589327,1.0043675964355467,-6.751648681640624,7.3549875,1.220703125,-2.5634765625,-0.48828125
1781061931.593327,1.0019733947753906,-6.72890376586914,7.3669585083007805,1.40380859375,-2.44140625,-0.3662109375
1781061931.597327,1.024718310546875,-6.726509564208984,7.370549810791015,1.220703125,-2.0751953125,0.0
1781061931.601327,1.0211270080566406,-6.744466076660156,7.371746911621093,1.15966796875,-2.01416015625,-0.30517578125
1781061931.605327,1.0402806213378906,-6.749254479980468,7.36097300415039,1.28173828125,-2.0751953125,-0.06103515625
1781061931.609309,1.0594342346191405,-6.737283471679687,7.352593298339843,1.0986328125,-1.89208984375,0.18310546875
1781061931.613309,1.0749965454101562,-6.742071875,7.326257080078125,1.28173828125,-1.708984375,0.3662109375
1781061931.6173089,1.0570400329589844,-6.719326959228515,7.313088970947265,1.708984375,-1.5869140625,0.3662109375
1781061931.6213088,1.0498574279785156,-6.731297967529296,7.301117962646484,1.8310546875,-1.0986328125,0.48828125
1781061931.6253088,1.0845733520507812,-6.738480572509765,7.269993341064453,1.953125,-0.67138671875,0.54931640625
1781061931.6293087,1.0773907470703123,-6.724115362548828,7.278373046874999,2.3193359375,-0.42724609375,0.54931640625
1781061931.6333086,1.061828436279297,-6.749254479980468,7.271190441894531,2.3193359375,-0.06103515625,0.48828125
1781061931.6373086,1.0630255371093749,-6.707355950927734,7.255628131103515,2.8076171875,0.42724609375,0.30517578125
1781061931.6413085,1.0462661254882812,-6.714538555908203,7.229291912841797,3.23486328125,0.6103515625,0.48828125
1781061931.6453085,1.0474632263183594,-6.679822631835937,7.22689771118164,3.11279296875,0.54931640625,0.732421875
1781061931.6493084,1.035492218017578,-6.6510922119140625,7.242460021972656,3.47900390625,0.67138671875,0.8544921875
1781061931.6533084,1.0330980163574217,-6.5960255737304685,7.250839727783203,3.662109375,0.9765625,0.9765625
1781061931.6573083,1.0235212097167967,-6.611587884521484,7.266402038574219,3.5400390625,0.79345703125,1.03759765625
1781061931.6613083,0.9876081848144531,-6.562506750488281,7.277175946044921,3.60107421875,0.67138671875,1.0986328125
1781061931.6653082,0.9971849914550781,-6.5385647338867185,7.279570147705078,3.2958984375,0.91552734375,1.28173828125
1781061931.6693082,0.9852139831542969,-6.499060406494141,7.28435855102539,3.41796875,0.54931640625,1.3427734375
1781061931.6733081,0.9983820922851562,-6.519411120605469,7.292738256835937,3.11279296875,0.79345703125,1.52587890625
1781061931.677308,0.9876081848144531,-6.494272003173828,7.283161450195312,2.9296875,0.3662109375,1.52587890625
1781061931.681308,0.97683427734375,-6.441599566650391,7.296329559326171,2.5634765625,0.42724609375,1.220703125
1781061931.685308,0.939724151611328,-6.471527087402343,7.293935357666015,1.953125,0.48828125,1.40380859375
1781061931.689308,0.9277531433105468,-6.482300994873047,7.310694769287109,1.708984375,0.42724609375,1.40380859375
1781061931.6933079,0.9109937316894531,-6.526593725585937,7.302315063476562,1.220703125,0.3662109375,1.3427734375
1781061931.6973078,0.9193734375,-6.5577183471679685,7.340622290039062,0.732421875,0.30517578125,1.03759765625
1781061931.7013078,0.9002198242187499,-6.5768719604492185,7.356184600830078,0.48828125,-0.244140625,0.8544921875
1781061931.7053077,0.8966285217285156,-6.555324145507812,7.3669585083007805,0.18310546875,-0.48828125,0.732421875
1781061931.7093077,0.9038111267089843,-6.605602380371093,7.364564306640625,-0.1220703125,-0.6103515625,0.30517578125
1781061931.7133076,0.9169792358398436,-6.60799658203125,7.352593298339843,0.0,-0.54931640625,0.1220703125
1781061931.7173076,0.9121908325195311,-6.640318304443359,7.350199096679687,-0.30517578125,-0.732421875,-0.244140625
1781061931.7213075,0.8786720092773437,-6.636727001953124,7.308300567626953,-0.1220703125,-0.30517578125,-0.54931640625
1781061931.7253075,0.8607154968261719,-6.706158850097656,7.315483172607421,-0.06103515625,-0.67138671875,-0.79345703125
1781061931.7293074,0.8678981018066406,-6.701370446777343,7.285555651855469,-0.1220703125,-0.54931640625,-0.67138671875
1781061931.7333074,0.8774749084472656,-6.716932757568359,7.302315063476562,0.3662109375,-0.30517578125,-1.15966796875
1781061931.7373073,0.853532891845703,-6.725312463378906,7.316680273437499,0.67138671875,-0.3662109375,-1.15966796875
1781061931.7413073,0.8547299926757812,-6.683413934326172,7.319074475097656,0.91552734375,-0.42724609375,-1.28173828125
1781061931.7453072,0.8678981018066406,-6.676231329345702,7.340622290039062,1.28173828125,-0.79345703125,-1.3427734375
1781061931.7493072,0.8726865051269531,-6.6702458251953125,7.3478048950195305,1.5869140625,-0.9765625,-1.220703125
1781061931.753307,0.8786720092773437,-6.688202337646484,7.351396197509765,1.8310546875,-1.220703125,-1.220703125
1781061931.757307,0.8834604125976562,-6.695384942626953,7.339425189208984,1.8310546875,-1.3427734375,-0.9765625
1781061931.761307,0.8906430175781249,-6.719326959228515,7.331045483398437,2.197265625,-1.708984375,-1.28173828125
1781061931.765307,0.8631096984863281,-6.710947253417968,7.321468676757812,2.25830078125,-1.77001953125,-0.91552734375
1781061931.769307,0.852335791015625,-6.7277066650390625,7.307103466796875,2.44140625,-1.708984375,-0.91552734375
1781061931.7733068,0.8571241943359375,-6.714538555908203,7.301117962646484,2.62451171875,-1.89208984375,-0.732421875
1781061931.7773068,0.834379278564453,-6.72890376586914,7.30351216430664,2.62451171875,-2.25830078125,-0.48828125
1781061931.7813067,0.8499415893554687,-6.692990740966796,7.292738256835937,3.11279296875,-2.38037109375,-0.67138671875
1781061931.7853067,0.8822633117675781,-6.685808135986328,7.273584643554687,3.23486328125,-2.5634765625,-0.54931640625
1781061931.7893066,0.8786720092773437,-6.663063220214843,7.269993341064453,3.2958984375,-2.5634765625,-0.244140625
1781061931.7933066,0.8822633117675781,-6.636727001953124,7.283161450195312,3.41796875,-2.9296875,-0.1220703125
1781061931.7973065,0.8667010009765624,-6.598419775390624,7.302315063476562,3.47900390625,-3.0517578125,-0.06103515625
1781061931.8013065,0.8954314208984374,-6.603208178710937,7.316680273437499,3.173828125,-3.23486328125,0.1220703125
1781061931.8053064,0.9038111267089843,-6.56968935546875,7.320271575927734,2.8076171875,-3.41796875,0.18310546875
1781061931.8093064,0.9085995300292968,-6.5948284729003905,7.339425189208984,2.74658203125,-3.35693359375,0.244140625
1781061931.8133063,0.9097966308593749,-6.586448767089843,7.314286071777343,2.44140625,-3.662109375,0.30517578125
1781061931.817255,0.9516951599121093,-6.590040069580078,7.317877374267578,2.01416015625,-3.84521484375,0.3662109375
1781061931.821255,0.9277531433105468,-6.629544396972656,7.275978845214843,1.89208984375,-3.41796875,0.18310546875
1781061931.825255,0.9349357482910156,-6.628347296142578,7.267599139404297,1.40380859375,-3.35693359375,0.1220703125
1781061931.8292549,0.939724151611328,-6.649895111083984,7.230489013671875,1.3427734375,-3.0517578125,0.1220703125
1781061931.8332548,0.9349357482910156,-6.622361791992187,7.229291912841797,1.28173828125,-2.50244140625,-0.244140625
1781061931.8372548,0.9528922607421875,-6.637924102783202,7.217320904541015,1.46484375,-2.13623046875,-0.18310546875
1781061931.8412547,0.949300958251953,-6.6271501953125,7.201758593749999,1.52587890625,-1.46484375,-0.3662109375
1781061931.8452547,0.9516951599121093,-6.6331356994628905,7.192181787109375,1.77001953125,-1.15966796875,-0.732421875
1781061931.8492546,0.9648632690429687,-6.618770489501952,7.183802081298828,1.8310546875,-0.732421875,-0.732421875
1781061931.8532546,0.9528922607421875,-6.5972226745605465,7.175422375488281,2.0751953125,-0.30517578125,-0.732421875
1781061931.8572545,0.9732429748535155,-6.604405279541015,7.167042669677734,2.13623046875,0.0,-0.9765625
1781061931.8612545,0.9564835632324218,-6.5768719604492185,7.168239770507812,2.3193359375,-0.18310546875,-0.91552734375
1781061931.8652544,0.9504980590820312,-6.572083557128906,7.149086157226562,2.25830078125,0.42724609375,-0.79345703125
1781061931.869222,0.9564835632324218,-6.556521246337891,7.137115148925781,2.0751953125,0.3662109375,-0.91552734375
1781061931.8731813,0.9337386474609375,-6.514622717285156,7.132326745605468,1.89208984375,0.79345703125,-0.9765625
1781061931.8771813,0.9097966308593749,-6.491877801513671,7.119158636474609,2.0751953125,0.8544921875,-0.67138671875
1781061931.8811812,0.9193734375,-6.489483599853515,7.117961535644531,1.8310546875,1.28173828125,-0.79345703125
1781061931.8851333,0.8978256225585937,-6.461950280761719,7.11197603149414,1.77001953125,1.46484375,-0.732421875
1781061931.8891332,0.8954314208984374,-6.472724188232421,7.129932543945312,1.28173828125,1.3427734375,-0.732421875
1781061931.8931332,0.8655039001464844,-6.441599566650391,7.156268762207031,0.91552734375,1.40380859375,-0.54931640625
1781061931.897133,0.8750807067871094,-6.414066247558593,7.196970190429687,0.8544921875,1.52587890625,-0.30517578125
1781061931.901133,0.8690952026367187,-6.410474945068359,7.214926702880859,0.732421875,1.15966796875,-0.06103515625
1781061931.905133,0.853532891845703,-6.415263348388671,7.217320904541015,0.48828125,1.0986328125,0.06103515625
1781061931.909133,0.8571241943359375,-6.4356140625,7.225700610351562,0.42724609375,0.91552734375,0.06103515625
1781061931.913133,0.8667010009765624,-6.4463879699707025,7.220912207031249,0.1220703125,0.79345703125,0.67138671875
1781061931.9171252,0.8547299926757812,-6.436811163330078,7.217320904541015,0.18310546875,0.3662109375,0.54931640625
1781061931.921113,0.8319850769042968,-6.472724188232421,7.220912207031249,0.18310546875,0.06103515625,0.91552734375
1781061931.925113,0.8020575561523438,-6.470329986572265,7.232883215332031,0.06103515625,-0.18310546875,0.91552734375
1781061931.929113,0.8595183959960937,-6.497863305664062,7.212532501220703,0.1220703125,-0.42724609375,1.03759765625
1781061931.9331129,0.8403647827148437,-6.5397618347167965,7.232883215332031,0.3662109375,-0.54931640625,1.0986328125
1781061931.9371128,0.834379278564453,-6.5218053222656245,7.225700610351562,0.30517578125,-1.03759765625,1.15966796875
1781061931.9411128,0.8367734802246093,-6.528987927246093,7.264007836914062,0.54931640625,-1.220703125,1.40380859375
1781061931.9451127,0.8475473876953125,-6.543353137207031,7.250839727783203,0.42724609375,-1.52587890625,1.40380859375
1781061931.9491127,0.8762778076171874,-6.56968935546875,7.256825231933593,0.54931640625,-1.64794921875,1.46484375
1781061931.9531126,0.8750807067871094,-6.618770489501952,7.268796240234375,0.732421875,-2.13623046875,1.46484375
1781061931.9571126,0.8738836059570312,-6.610390783691406,7.238868719482421,0.54931640625,-2.25830078125,1.28173828125
1781061931.9611125,0.86191259765625,-6.603208178710937,7.269993341064453,0.42724609375,-2.3193359375,1.15966796875
1781061931.9651124,0.8834604125976562,-6.635529901123046,7.2532339294433585,0.79345703125,-2.38037109375,1.15966796875
1781061931.9691124,0.9097966308593749,-6.643909606933593,7.2723875427246085,0.6103515625,-2.50244140625,1.0986328125
1781061931.9731123,0.8858546142578124,-6.6271501953125,7.28435855102539,0.732421875,-2.50244140625,0.91552734375
1781061931.9771123,0.9097966308593749,-6.628347296142578,7.279570147705078,0.48828125,-2.13623046875,0.48828125
1781061931.9811122,0.9085995300292968,-6.5972226745605465,7.287949853515625,0.3662109375,-2.3193359375,0.54931640625
1781061931.9851122,0.9109937316894531,-6.6151791870117185,7.323862878417969,0.48828125,-2.0751953125,0.42724609375
1781061931.9891121,0.9277531433105468,-6.605602380371093,7.333439685058593,0.30517578125,-2.197265625,0.3662109375
1781061931.993112,0.9373299499511718,-6.5768719604492185,7.343016491699219,0.244140625,-2.50244140625,0.0
1781061931.997112,0.939724151611328,-6.572083557128906,7.3657614074707025,-0.06103515625,-2.5634765625,0.0
1781061932.001112,0.9457096557617187,-6.591237170410156,7.38012661743164,-0.1220703125,-2.3193359375,-0.1220703125
1781061932.005112,0.9337386474609375,-6.56968935546875,7.369352709960937,-0.3662109375,-2.50244140625,-0.244140625
1781061932.009112,0.9540893615722655,-6.585251666259765,7.381323718261719,-0.732421875,-2.44140625,-0.30517578125
1781061932.0131118,0.9516951599121093,-6.617573388671874,7.3837179199218745,-0.91552734375,-2.0751953125,-0.42724609375
1781061932.0171118,0.93852705078125,-6.618770489501952,7.3669585083007805,-1.03759765625,-2.38037109375,-0.6103515625
1781061932.0211117,0.968454571533203,-6.590040069580078,7.390900524902343,-1.15966796875,-1.89208984375,-1.03759765625
1781061932.0251117,0.978031378173828,-6.628347296142578,7.370549810791015,-1.3427734375,-1.89208984375,-0.91552734375
1781061932.0291116,0.9660603698730468,-6.6702458251953125,7.371746911621093,-1.220703125,-1.708984375,-0.9765625
1781061932.0331116,0.9876081848144531,-6.6893994384765625,7.382520819091797,-1.0986328125,-1.5869140625,-1.220703125
1781061932.0371115,0.9852139831542969,-6.678625531005859,7.362170104980469,-1.28173828125,-1.46484375,-1.220703125
1781061932.0411115,0.9792284790039062,-6.700173345947265,7.350199096679687,-1.40380859375,-1.28173828125,-1.40380859375
1781061932.0451114,1.0007762939453124,-6.702567547607422,7.339425189208984,-0.91552734375,-0.9765625,-1.40380859375
1781061932.0491114,0.9804255798339843,-6.6905965393066404,7.335833886718749,-0.9765625,-0.732421875,-1.46484375
1781061932.0531113,1.006761798095703,-6.725312463378906,7.310694769287109,-0.732421875,-0.244140625,-1.28173828125
1781061932.0571113,1.0199299072265624,-6.694187841796874,7.317877374267578,-0.3662109375,-0.1220703125,-1.03759765625
1781061932.0611112,1.005564697265625,-6.701370446777343,7.313088970947265,0.0,0.1220703125,-0.8544921875
1781061932.0651112,1.0402806213378906,-6.679822631835937,7.338228088378906,0.30517578125,0.18310546875,-0.79345703125
1781061932.069111,1.0474632263183594,-6.676231329345702,7.337030987548828,0.244140625,0.42724609375,-0.42724609375
1781061932.073111,1.035492218017578,-6.6510922119140625,7.350199096679687,0.6103515625,0.18310546875,0.18310546875
1781061932.077111,1.0510545288085937,-6.621164691162109,7.357381701660156,0.54931640625,0.3662109375,0.54931640625
1781061932.081111,1.0438719238281249,-6.5972226745605465,7.3549875,0.732421875,0.244140625,0.91552734375
1781061932.085111,1.0390835205078124,-6.58884296875,7.3549875,0.67138671875,0.30517578125,0.8544921875
1781061932.0891109,1.0283096130371092,-6.618770489501952,7.356184600830078,0.732421875,0.1220703125,1.3427734375
1781061932.0931108,1.0414777221679687,-6.592434271240234,7.37414111328125,0.6103515625,0.3662109375,1.28173828125
1781061932.0971107,1.0211270080566406,-6.593631372070312,7.363367205810547,0.67138671875,0.1220703125,1.708984375
1781061932.1011107,1.0606313354492187,-6.599616876220702,7.371746911621093,0.3662109375,0.18310546875,1.77001953125
1781061932.1051106,1.0534487304687499,-6.5601125488281244,7.359775903320312,0.244140625,0.06103515625,1.64794921875
1781061932.1091106,1.0378864196777342,-6.593631372070312,7.349001995849609,0.18310546875,0.42724609375,1.89208984375
1781061932.1131105,1.0498574279785156,-6.606799481201172,7.3549875,0.0,0.42724609375,2.01416015625
1781061932.1171105,1.042674822998047,-6.582857464599609,7.36097300415039,0.1220703125,0.42724609375,2.01416015625
1781061932.1211104,1.0630255371093749,-6.6151791870117185,7.3478048950195305,-0.42724609375,0.3662109375,1.46484375
1781061932.1251104,1.0474632263183594,-6.6271501953125,7.352593298339843,-0.18310546875,0.67138671875,1.46484375
1781061932.1291103,1.0235212097167967,-6.617573388671874,7.326257080078125,-0.1220703125,0.732421875,1.15966796875
1781061932.1331103,1.0570400329589844,-6.678625531005859,7.301117962646484,-0.18310546875,0.67138671875,0.9765625
1781061932.1371102,1.052251629638672,-6.678625531005859,7.301117962646484,0.0,0.732421875,0.9765625
1781061932.1411102,1.0295067138671874,-6.704961749267578,7.307103466796875,-0.1220703125,0.8544921875,0.6103515625
1781061932.1451101,1.0342951171875,-6.736086370849609,7.289146954345703,-0.06103515625,1.15966796875,0.244140625
1781061932.14911,1.035492218017578,-6.737283471679687,7.3094976684570305,0.54931640625,1.0986328125,0.244140625
1781061932.15311,1.0474632263183594,-6.749254479980468,7.259219433593749,0.732421875,1.220703125,0.18310546875
1781061932.15711,1.035492218017578,-6.687005236816406,7.277175946044921,1.0986328125,1.40380859375,-0.06103515625
1781061932.16111,1.0342951171875,-6.688202337646484,7.307103466796875,1.15966796875,1.40380859375,0.18310546875
1781061932.1651099,0.9971849914550781,-6.6905965393066404,7.302315063476562,1.708984375,1.708984375,-0.48828125
1781061932.1691098,1.0211270080566406,-6.685808135986328,7.30351216430664,1.708984375,1.64794921875,-0.42724609375
1781061932.1731098,1.01514150390625,-6.658274816894531,7.313088970947265,2.13623046875,1.40380859375,-0.18310546875
1781061932.1771097,1.016338604736328,-6.622361791992187,7.308300567626953,2.13623046875,1.28173828125,-0.3662109375
1781061932.1811097,0.9959878906249999,-6.623558892822265,7.3094976684570305,2.197265625,1.220703125,-0.42724609375
1781061932.1851096,0.978031378173828,-6.582857464599609,7.313088970947265,2.3193359375,0.91552734375,-0.67138671875
1781061932.1891096,0.9744400756835937,-6.585251666259765,7.30351216430664,2.25830078125,0.91552734375,-1.03759765625
1781061932.1931095,0.9660603698730468,-6.528987927246093,7.3094976684570305,2.01416015625,0.67138671875,-1.15966796875
1781061932.1971095,0.9732429748535155,-6.532579229736328,7.323862878417969,1.5869140625,0.732421875,-1.15966796875
1781061932.2011094,0.97683427734375,-6.517016918945312,7.32266577758789,1.64794921875,0.54931640625,-1.28173828125
1781061932.2051094,0.9804255798339843,-6.5038488098144525,7.313088970947265,1.0986328125,0.42724609375,-1.52587890625
1781061932.2091093,0.9852139831542969,-6.505045910644531,7.320271575927734,0.91552734375,0.42724609375,-1.52587890625
1781061932.2131093,0.9935936889648437,-6.523002423095702,7.297526660156249,0.732421875,0.30517578125,-1.8310546875
1781061932.2171092,0.9947907897949219,-6.518214019775391,7.28435855102539,0.732421875,0.18310546875,-1.89208984375
1781061932.2211092,0.9947907897949219,-6.509834313964843,7.256825231933593,0.6103515625,0.0,-1.8310546875
1781061932.225109,1.0091559997558592,-6.507440112304687,7.235277416992187,0.3662109375,0.18310546875,-2.13623046875
1781061932.229109,0.9995791931152344,-6.5038488098144525,7.213729602050781,0.42724609375,0.1220703125,-2.0751953125
1781061932.233109,0.9971849914550781,-6.482300994873047,7.212532501220703,0.244140625,0.30517578125,-1.89208984375
1781061932.237109,1.006761798095703,-6.469132885742187,7.217320904541015,0.42724609375,-0.1220703125,-1.953125
1781061932.241109,0.9888052856445312,-6.458358978271484,7.223306408691406,0.1220703125,0.244140625,-2.0751953125
1781061932.2451088,1.0031704956054688,-6.438008264160156,7.236474517822265,0.06103515625,0.18310546875,-2.01416015625
1781061932.2491088,1.0199299072265624,-6.463147381591797,7.24605132446289,-0.18310546875,0.244140625,-1.77001953125
1781061932.2531087,1.0235212097167967,-6.441599566650391,7.274781744384765,-0.30517578125,0.0,-1.46484375
1781061932.2571087,1.0390835205078124,-6.457161877441406,7.275978845214843,-0.54931640625,-0.18310546875,-1.220703125
1781061932.2611086,1.0283096130371092,-6.4846951965332025,7.299920861816406,-0.67138671875,-0.30517578125,-0.8544921875
1781061932.2651086,1.0498574279785156,-6.4846951965332025,7.292738256835937,-1.28173828125,-0.244140625,-0.91552734375
1781061932.2691085,1.0175357055664063,-6.4846951965332025,7.314286071777343,-1.220703125,-0.18310546875,-0.67138671875
1781061932.2731085,1.016338604736328,-6.499060406494141,7.293935357666015,-1.5869140625,-0.18310546875,-0.6103515625
1781061932.2771084,1.0127473022460938,-6.53138212890625,7.292738256835937,-1.77001953125,0.3662109375,-0.42724609375
1781061932.2811084,1.0103531005859374,-6.534973431396484,7.297526660156249,-1.8310546875,0.6103515625,-0.30517578125
1781061932.2851083,1.0319009155273438,-6.562506750488281,7.310694769287109,-1.46484375,0.54931640625,-0.1220703125
1781061932.2891083,0.9995791931152344,-6.5948284729003905,7.323862878417969,-1.64794921875,1.03759765625,-0.06103515625
1781061932.2931082,1.025915411376953,-6.602011077880859,7.351396197509765,-1.52587890625,0.91552734375,-0.06103515625
1781061932.2971082,1.035492218017578,-6.616376287841796,7.343016491699219,-1.46484375,1.3427734375,0.0
1781061932.3011081,1.0211270080566406,-6.623558892822265,7.313088970947265,-1.220703125,1.46484375,0.06103515625
1781061932.305108,1.0139444030761717,-6.6319385986328125,7.3094976684570305,-1.3427734375,1.953125,-0.06103515625
1781061932.309108,1.0007762939453124,-6.6139820861816405,7.292738256835937,-0.8544921875,2.197265625,-0.18310546875
1781061932.313108,1.0115502014160156,-6.637924102783202,7.278373046874999,-0.54931640625,2.3193359375,-0.244140625
1781061932.317108,0.968454571533203,-6.6714429260253905,7.249642626953125,-0.30517578125,2.9296875,-0.3662109375
1781061932.3211079,0.97683427734375,-6.655880615234374,7.2532339294433585,-0.06103515625,3.47900390625,-0.732421875
1781061932.3251078,0.9935936889648437,-6.612784985351562,7.279570147705078,0.06103515625,3.2958984375,-0.54931640625
1781061932.3291078,0.9792284790039062,-6.609193682861328,7.28435855102539,0.3662109375,3.662109375,-0.54931640625
1781061932.3331077,0.9576806640625,-6.548141540527343,7.292738256835937,0.48828125,3.662109375,-0.54931640625
1781061932.3371077,0.9600748657226562,-6.554127044677734,7.325059979248047,0.54931640625,3.47900390625,-0.48828125
1781061932.3411076,0.9504980590820312,-6.525396624755859,7.332242584228515,0.42724609375,3.35693359375,-0.1220703125
1781061932.3451076,0.9349357482910156,-6.495469104003906,7.329848382568359,0.1220703125,3.35693359375,-0.1220703125
1781061932.3491075,0.9217676391601562,-6.48589229736328,7.345410693359375,0.30517578125,3.0517578125,0.0
1781061932.3531075,0.9157821350097656,-6.463147381591797,7.335833886718749,0.1220703125,2.86865234375,0.18310546875
1781061932.3571074,0.8966285217285156,-6.4846951965332025,7.333439685058593,-0.1220703125,2.685546875,0.42724609375
1781061932.3611073,0.8810662109374999,-6.458358978271484,7.313088970947265,-0.30517578125,2.5634765625,0.54931640625
1781061932.3651073,0.8774749084472656,-6.4846951965332025,7.320271575927734,-0.42724609375,2.3193359375,0.54931640625
1781061932.3691072,0.8499415893554687,-6.455964776611328,7.3466077941894525,-0.48828125,1.8310546875,0.79345703125
1781061932.3731072,0.8655039001464844,-6.477512591552734,7.364564306640625,-0.30517578125,1.0986328125,1.03759765625
1781061932.3771071,0.8295908752441405,-6.5038488098144525,7.388506323242187,-0.18310546875,0.42724609375,1.0986328125
1781061932.381107,0.842758984375,-6.481103894042969,7.350199096679687,-0.42724609375,-0.244140625,0.79345703125
1781061932.385107,0.8295908752441405,-6.517016918945312,7.371746911621093,-0.30517578125,-0.79345703125,0.6103515625
1781061932.389107,0.8283937744140625,-6.5385647338867185,7.352593298339843,-0.42724609375,-1.3427734375,0.48828125
1781061932.393107,0.8056488586425781,-6.564900952148437,7.350199096679687,-0.244140625,-1.708984375,0.1220703125
1781061932.397107,0.8056488586425781,-6.5601125488281244,7.338228088378906,-0.18310546875,-2.197265625,-0.06103515625
1781061932.4011068,0.8176198669433593,-6.549338641357421,7.371746911621093,-0.30517578125,-2.685546875,-0.3662109375
1781061932.4051068,0.8295908752441405,-6.5948284729003905,7.370549810791015,-0.06103515625,-3.173828125,-0.91552734375
1781061932.4091067,0.8631096984863281,-6.598419775390624,7.387309222412109,-0.54931640625,-3.90625,-1.46484375
1781061932.4131067,0.8762778076171874,-6.58884296875,7.375338214111328,-0.30517578125,-4.150390625,-1.64794921875
1781061932.4171066,0.8882488159179687,-6.618770489501952,7.392097625732421,-0.54931640625,-4.638671875,-2.0751953125
1781061932.4211066,0.9169792358398436,-6.617573388671874,7.388506323242187,-1.15966796875,-4.7607421875,-2.38037109375
1781061932.4251065,0.9038111267089843,-6.617573388671874,7.3837179199218745,-1.03759765625,-5.0048828125,-2.74658203125
1781061932.4291065,0.9409212524414062,-6.637924102783202,7.3861121215820305,-0.9765625,-4.8828125,-2.99072265625
1781061932.4331064,0.9181763366699218,-6.5960255737304685,7.376535314941406,-0.9765625,-5.4931640625,-3.35693359375
1781061932.4371064,0.967257470703125,-6.641515405273437,7.352593298339843,-1.28173828125,-5.18798828125,-3.35693359375
1781061932.4411063,0.9900023864746094,-6.669048724365234,7.333439685058593,-0.8544921875,-5.0048828125,-3.662109375
1781061932.4451063,0.9840168823242187,-6.657077716064452,7.317877374267578,-0.79345703125,-5.2490234375,-3.84521484375
1781061932.4491062,0.9959878906249999,-6.672640026855468,7.308300567626953,-0.30517578125,-4.8828125,-3.7841796875
1781061932.4531062,1.0187328063964842,-6.657077716064452,7.285555651855469,-0.18310546875,-5.06591796875,-3.72314453125
1781061932.457106,0.9935936889648437,-6.641515405273437,7.298723760986328,0.18310546875,-4.8828125,-3.5400390625
1781061932.461106,1.0414777221679687,-6.6510922119140625,7.323862878417969,0.54931640625,-4.7607421875,-3.662109375
1781061932.465106,1.0187328063964842,-6.617573388671874,7.30351216430664,0.67138671875,-4.8828125,-3.47900390625
1781061932.469106,1.042674822998047,-6.6343328002929685,7.337030987548828,0.8544921875,-4.57763671875,-3.173828125
1781061932.473106,1.061828436279297,-6.587645867919922,7.314286071777343,1.15966796875,-4.5166015625,-3.173828125
