timestamp,acc_x,acc_y,acc_z,gyro_x,gyro_y,gyro_z
1781061928.4007795,0.1484405029296875,-6.68461103515625,7.28435855102539,2.9296875,-11.29150390625,2.86865234375
1781061928.4047794,0.20231004028320312,-6.675034228515624,7.210138299560547,3.84521484375,-11.1083984375,2.44140625
1781061928.4087794,0.2920926025390625,-6.642712506103515,7.1586629638671875,4.57763671875,-10.92529296875,2.13623046875
1781061928.4127793,0.3758896606445312,-6.598419775390624,7.202955694580078,5.18798828125,-10.19287109375,1.64794921875
1781061928.4167793,0.4333505004882812,-6.573280657958984,7.260416534423828,5.67626953125,-9.33837890625,0.9765625
1781061928.4207792,0.5147533569335937,-6.64630380859375,7.266402038574219,5.615234375,-8.4228515625,0.30517578125
1781061928.4247792,0.5662286926269531,-6.654683514404296,7.4040686340332025,6.40869140625,-7.87353515625,-0.30517578125
1781061928.4287791,0.6811503723144531,-6.641515405273437,7.353790399169921,5.9814453125,-7.14111328125,-1.220703125
1781061928.432779,0.6452373474121094,-6.760028387451172,7.296329559326171,5.55419921875,-5.4931640625,-1.52587890625
1781061928.436779,0.55545478515625,-6.80551821899414,7.271190441894531,4.638671875,-3.35693359375,-2.44140625
1781061928.440779,0.5530605834960938,-6.773196496582031,7.220912207031249,3.11279296875,-1.3427734375,-3.41796875
1781061928.444779,0.5530605834960938,-6.683413934326172,7.193378887939453,2.44140625,1.03759765625,-3.60107421875
1781061928.4487789,0.6572083557128906,-6.647500909423828,7.212532501220703,1.52587890625,3.173828125,-3.5400390625
1781061928.4527788,0.7003039855957031,-6.563703851318359,7.274781744384765,0.42724609375,5.31005859375,-2.99072265625
1781061928.4567788,0.7110778930664062,-6.527790826416015,7.329848382568359,-0.54931640625,6.89697265625,-2.13623046875
1781061928.4607787,0.7314286071777343,-6.455964776611328,7.335833886718749,-1.3427734375,7.568359375,-0.79345703125
1781061928.4647787,0.7302315063476562,-6.394912634277343,7.299920861816406,-2.0751953125,8.4228515625,0.6103515625
1781061928.4687786,0.7757213378906249,-6.393715533447265,7.38012661743164,-3.11279296875,9.765625,2.685546875
1781061928.4727786,0.6715735656738281,-6.356605407714843,7.601590270996093,-3.90625,11.1083984375,4.57763671875
1781061928.4767785,0.5710170959472656,-6.41646044921875,7.471106280517578,-6.28662109375,11.16943359375,6.04248046875
1781061928.4807785,0.45010991210937495,-6.453570574951171,7.234080316162109,-6.2255859375,11.5966796875,8.056640625
1781061928.4847784,0.4321533996582031,-6.368576416015625,7.199364392089843,-6.28662109375,11.962890625,10.009765625
1781061928.4887784,0.4896142395019531,-6.393715533447265,7.107187628173827,-6.9580078125,11.962890625,11.90185546875
1781061928.4927783,0.4369418029785156,-6.406883642578125,7.147889056396484,-6.8359375,12.14599609375,13.61083984375
1781061928.4967782,0.4740519287109375,-6.4655415832519525,7.2903440551757805,-6.4697265625,12.451171875,14.95361328125
1781061928.5007782,0.5111620544433594,-6.573280657958984,7.315483172607421,-5.2490234375,11.04736328125,16.4794921875
1781061928.5047781,0.5195417602539062,-6.660669018554687,7.350199096679687,-3.72314453125,8.1787109375,17.15087890625
1781061928.508778,0.4381389038085937,-6.773196496582031,7.36097300415039,-2.685546875,6.2255859375,17.08984375
1781061928.512778,0.33758243408203126,-6.937199310302734,7.281964349365234,-0.9765625,4.7607421875,16.845703125
1781061928.516778,0.21906945190429686,-7.151480358886718,7.132326745605468,0.30517578125,3.173828125,15.625
1781061928.520778,0.15682020874023436,-7.266402038574219,7.048529687499999,1.46484375,2.86865234375,13.85498046875
1781061928.524778,0.09217676391601562,-7.295132458496093,7.022193469238281,1.64794921875,3.5400390625,11.8408203125
1781061928.5287778,0.1197100830078125,-7.302315063476562,7.0090253601074215,2.50244140625,3.72314453125,9.765625
1781061928.5327778,0.16998831787109375,-7.249642626953125,7.059303594970703,3.2958984375,3.7841796875,7.568359375
1781061928.5367777,0.17118541870117188,-7.129932543945312,7.133523846435547,3.90625,3.84521484375,5.31005859375
1781061928.5407777,0.16879121704101563,-7.094019519042968,7.170633972167968,4.82177734375,3.41796875,3.23486328125
1781061928.5447776,0.15083470458984374,-7.040149981689453,7.181407879638671,5.55419921875,2.86865234375,1.15966796875
1781061928.5487776,0.17118541870117188,-6.959944226074218,7.228094812011718,6.28662109375,2.25830078125,-0.67138671875
1781061928.5527775,0.17477672119140625,-6.8976949829101555,7.261613635253906,7.01904296875,1.708984375,-2.197265625
1781061928.5567775,0.20949264526367187,-6.883329772949218,7.280767248535156,7.01904296875,0.6103515625,-3.60107421875
1781061928.5607774,0.1867477294921875,-6.835445739746094,7.299920861816406,7.080078125,0.06103515625,-4.39453125
1781061928.5647774,0.18555062866210936,-6.725312463378906,7.345410693359375,7.01904296875,-0.54931640625,-5.67626953125
1781061928.5687773,0.15322890625,-6.678625531005859,7.343016491699219,6.7138671875,-1.46484375,-6.591796875
1781061928.5727773,0.16041151123046873,-6.694187841796874,7.401674432373047,6.7138671875,-3.173828125,-7.26318359375
1781061928.5767772,0.14006079711914063,-6.659471917724609,7.455543969726562,6.591796875,-4.21142578125,-7.6904296875
1781061928.5807772,0.11252747802734374,-6.672640026855468,7.495048297119141,6.16455078125,-5.4931640625,-8.056640625
1781061928.584777,0.08259995727539061,-6.726509564208984,7.4962453979492185,5.859375,-6.77490234375,-8.544921875
1781061928.588777,0.09935936889648436,-6.7803791015625,7.498639599609374,5.31005859375,-8.1787109375,-8.85009765625
1781061928.592777,0.08978256225585937,-6.782773303222656,7.504625103759765,5.43212890625,-9.27734375,-9.33837890625
1781061928.596777,0.07302315063476562,-6.83783994140625,7.4699091796875,4.94384765625,-10.31494140625,-9.82666015625
1781061928.600777,0.12569558715820311,-6.894103680419922,7.4794859863281244,4.8828125,-11.29150390625,-9.8876953125
1781061928.6047769,0.1352723937988281,-6.8785413696289055,7.487865692138671,4.69970703125,-12.0849609375,-10.1318359375
1781061928.6087768,0.13407529296874998,-6.898892083740234,7.474697583007812,4.7607421875,-13.0615234375,-10.25390625
1781061928.6127768,0.15562310791015624,-6.907271789550781,7.484274389648437,4.94384765625,-13.916015625,-10.498046875
1781061928.6167767,0.16519991455078123,-6.9336080078124995,7.471106280517578,5.18798828125,-14.34326171875,-10.498046875
1781061928.6207767,0.18315642700195311,-6.9527616210937495,7.473500482177734,5.55419921875,-14.58740234375,-11.04736328125
1781061928.6247766,0.2214636535644531,-7.001842755126953,7.456741070556641,6.28662109375,-14.95361328125,-11.1083984375
1781061928.6287766,0.2765302917480469,-7.000645654296875,7.471106280517578,6.8359375,-14.95361328125,-11.29150390625
1781061928.6327765,0.3016694091796875,-6.975506536865234,7.473500482177734,7.38525390625,-15.0146484375,-11.41357421875
1781061928.6367764,0.354341845703125,-6.95874712524414,7.448361364746093,8.056640625,-15.2587890625,-11.474609375
1781061928.6407764,0.3794809631347656,-6.93959351196289,7.430404852294921,8.97216796875,-15.19775390625,-11.71875
1781061928.6447763,0.37708676147460934,-6.902483386230468,7.371746911621093,9.70458984375,-15.2587890625,-11.90185546875
1781061928.6487763,0.3758896606445312,-6.904877587890625,7.369352709960937,10.43701171875,-15.13671875,-12.451171875
1781061928.6527762,0.43454760131835934,-6.9168485961914055,7.3861121215820305,10.8642578125,-14.6484375,-12.8173828125
1781061928.6567762,0.4465186096191406,-6.868964562988281,7.407659936523437,11.16943359375,-13.97705078125,-12.939453125
1781061928.660741,0.49679684448242184,-6.870161663818359,7.437587457275391,11.1083984375,-13.7939453125,-13.36669921875
1781061928.664741,0.4896142395019531,-6.885723974609375,7.4411787597656245,11.16943359375,-13.0615234375,-13.73291015625
1781061928.668741,0.5339069702148437,-6.872555865478515,7.451952667236328,11.29150390625,-12.75634765625,-14.16015625
1781061928.672741,0.5817910034179687,-6.83783994140625,7.46272657470703,11.41357421875,-12.5732421875,-14.46533203125
1781061928.676741,0.6081272216796875,-6.8402341430664055,7.4411787597656245,11.53564453125,-12.20703125,-14.83154296875
1781061928.6806927,0.6057330200195312,-6.847416748046874,7.387309222412109,12.451171875,-12.0849609375,-15.44189453125
1781061928.6846926,0.6248866333007812,-6.818686328125,7.401674432373047,13.00048828125,-11.962890625,-15.80810546875
1781061928.6886926,0.6380547424316406,-6.800729815673828,7.338228088378906,13.36669921875,-11.474609375,-16.54052734375
1781061928.692649,0.6572083557128906,-6.773196496582031,7.331045483398437,14.16015625,-11.04736328125,-17.578125
1781061928.6966488,0.6584054565429687,-6.716932757568359,7.338228088378906,14.58740234375,-11.04736328125,-18.1884765625
1781061928.7006161,0.7062894897460937,-6.667851623535156,7.358578802490234,14.70947265625,-11.04736328125,-19.287109375
1781061928.704616,0.718260498046875,-6.5972226745605465,7.369352709960937,14.892578125,-11.474609375,-20.263671875
1781061928.708616,0.6607996582031249,-6.455964776611328,7.4220251464843745,14.892578125,-12.14599609375,-20.8740234375
1781061928.712616,0.8008604553222656,-6.386532928466797,7.581239556884765,14.7705078125,-13.12255859375,-21.78955078125
1781061928.716616,0.7841010437011718,-6.418854650878906,7.4794859863281244,14.2822265625,-14.2822265625,-22.705078125
1781061928.7206159,0.7888894470214843,-6.393715533447265,7.548917834472656,13.427734375,-14.7705078125,-23.62060546875
1781061928.7246158,0.7745242370605468,-6.3901242309570305,7.511807708740234,12.939453125,-15.2587890625,-24.7802734375
1781061928.7286158,0.7445967163085937,-6.405686541748047,7.467514978027343,12.0849609375,-16.11328125,-26.18408203125
1781061928.7326157,0.7433996154785156,-6.40329234008789,7.483077288818359,11.04736328125,-16.54052734375,-27.77099609375
1781061928.7366157,0.7206546997070312,-6.291961962890625,7.4974424987792965,10.25390625,-16.78466796875,-29.35791015625
1781061928.7406156,0.7829039428710937,-6.411672045898437,7.529764221191406,8.97216796875,-17.7001953125,-30.70068359375
1781061928.7446156,0.6859387756347656,-6.380547424316406,7.436390356445312,8.11767578125,-18.12744140625,-32.40966796875
1781061928.7486155,0.6919242797851562,-6.423643054199219,7.513004809570312,7.2021484375,-18.9208984375,-34.3017578125
1781061928.7526155,0.6811503723144531,-6.506243011474609,7.492654095458984,5.859375,-18.9208984375,-36.19384765625
1781061928.7566082,0.6871358764648438,-6.581660363769531,7.551312036132812,5.0048828125,-19.53125,-37.59765625
1781061928.7606082,0.7529764221191406,-6.617573388671874,7.600393170166015,4.150390625,-20.20263671875,-39.12353515625
1781061928.7646081,0.7984662536621093,-6.64630380859375,7.674613421630859,3.23486328125,-20.99609375,-40.58837890625
1781061928.768608,0.852335791015625,-6.665457421875,7.692569934082031,2.50244140625,-21.54541015625,-41.68701171875
1781061928.772608,0.9062053283691406,-6.658274816894531,7.693767034912109,2.0751953125,-21.78955078125,-42.3583984375
1781061928.776608,0.968454571533203,-6.678625531005859,7.681796026611328,2.13623046875,-22.705078125,-43.27392578125
1781061928.780608,1.0474632263183594,-6.695384942626953,7.668627917480468,2.62451171875,-23.681640625,-43.76220703125
1781061928.7845998,1.045069024658203,-6.642712506103515,7.626729388427734,2.86865234375,-24.10888671875,-44.12841796875
1781061928.7885997,1.1133037719726562,-6.586448767089843,7.625532287597656,3.662109375,-24.658203125,-44.5556640625
1781061928.7925997,1.1635820068359375,-6.564900952148437,7.484274389648437,4.5166015625,-25.20751953125,-44.5556640625
1781061928.7965996,1.2378022583007813,-6.563703851318359,7.5153990112304685,5.7373046875,-25.69580078125,-44.73876953125
1781061928.8005996,1.3108254089355469,-6.562506750488281,7.522581616210937,6.28662109375,-26.123046875,-44.73876953125
1781061928.8045995,1.3060370056152344,-6.470329986572265,7.572859851074218,6.40869140625,-25.634765625,-44.25048828125
1781061928.8085995,1.35990654296875,-6.360196710205078,7.5908163635253905,6.04248046875,-25.45166015625,-43.45703125
1781061928.8125994,1.43652099609375,-6.271611248779297,7.6087728759765625,5.79833984375,-25.45166015625,-42.78564453125
1781061928.8165994,1.466448516845703,-6.222530114746093,7.554903338623046,5.43212890625,-24.96337890625,-41.80908203125
1781061928.8205993,1.5131354492187499,-6.1638721740722655,7.487865692138671,5.4931640625,-25.08544921875,-41.015625
1781061928.8245993,1.5682020874023437,-6.041767889404296,7.5465236328125,4.7607421875,-24.71923828125,-39.48974609375
1781061928.8285992,1.6448165405273436,-6.050147595214844,7.544129431152343,4.33349609375,-24.658203125,-38.26904296875
1781061928.8325992,1.6891092712402342,-6.042964990234375,7.5537062377929685,3.90625,-24.90234375,-36.7431640625
1781061928.836599,1.7525556152343749,-6.016628771972656,7.535749725341796,4.0283203125,-25.7568359375,-34.97314453125
1781061928.840599,1.8064251525878905,-6.016628771972656,7.4962453979492185,4.45556640625,-26.18408203125,-32.89794921875
1781061928.844599,1.8088193542480469,-6.003460662841796,7.444770062255859,4.69970703125,-26.18408203125,-30.76171875
1781061928.848599,1.8519149841308593,-6.048950494384766,7.3478048950195305,5.31005859375,-26.0009765625,-28.80859375
1781061928.852599,1.9009961181640624,-6.068104107666016,7.274781744384765,5.79833984375,-26.42822265625,-26.79443359375
1781061928.8565989,1.9321207397460936,-6.028599780273437,7.228094812011718,6.65283203125,-25.93994140625,-24.4140625
1781061928.8605988,1.9333178405761717,-6.003460662841796,7.141903552246093,7.38525390625,-25.08544921875,-22.39990234375
1781061928.8645988,1.956062756347656,-5.990292553710937,7.053318090820312,7.62939453125,-23.3154296875,-19.95849609375
1781061928.8685987,2.0183119995117185,-5.96275923461914,7.025784771728516,8.11767578125,-21.484375,-17.88330078125
1781061928.8725986,2.069787335205078,-5.9400143188476555,7.005434057617187,8.30078125,-19.95849609375,-15.80810546875
1781061928.8765986,2.1511901916503904,-5.884947680664062,7.012616662597656,8.6669921875,-18.49365234375,-13.24462890625
1781061928.8805985,2.2098481323242187,-5.80953032836914,7.041347082519531,8.6669921875,-17.51708984375,-10.8642578125
1781061928.8845985,2.2266075439453124,-5.737704278564453,7.116764434814453,8.85009765625,-16.845703125,-8.1787109375
1781061928.8885984,2.2780828796386716,-5.724536169433593,7.149086157226562,8.4228515625,-16.05224609375,-5.43212890625
1781061928.8925984,2.2972364929199216,-5.704185455322265,7.171831072998047,8.11767578125,-15.19775390625,-2.86865234375
1781061928.8965983,2.2924480895996093,-5.699397052001952,7.186196282958984,7.4462890625,-14.22119140625,-0.54931640625
1781061928.9005983,2.300827795410156,-5.704185455322265,7.149086157226562,7.14111328125,-12.63427734375,1.77001953125
1781061928.9045982,2.318784307861328,-5.7125651611328125,7.114370233154297,6.53076171875,-11.29150390625,3.84521484375
1781061928.9085982,2.3211785095214843,-5.718550665283203,7.129932543945312,5.9814453125,-9.94873046875,5.79833984375
1781061928.9125981,2.308010400390625,-5.718550665283203,7.133523846435547,5.615234375,-8.6669921875,7.87353515625
1781061928.916598,2.3403321228027343,-5.761646295166015,7.151480358886718,5.31005859375,-7.32421875,10.009765625
1781061928.920598,2.3259669128417966,-5.82868394165039,7.1586629638671875,4.94384765625,-6.34765625,11.65771484375
1781061928.924598,2.3032219970703123,-5.882553479003906,7.143100653076171,4.5166015625,-4.69970703125,13.00048828125
1781061928.928598,2.2649147705078123,-5.925649108886718,7.077260107421875,4.150390625,-3.2958984375,13.97705078125
1781061928.9325979,2.251746661376953,-5.993883856201172,7.056909393310547,3.84521484375,-1.64794921875,15.0146484375
1781061928.9365978,2.2074539306640624,-6.044162091064453,7.052120989990234,3.84521484375,0.06103515625,15.80810546875
1781061928.9405978,2.2002713256835937,-6.102820031738281,7.053318090820312,3.41796875,1.46484375,16.6015625
1781061928.9445977,2.1930887207031247,-6.118382342529297,7.042544183349609,3.41796875,3.11279296875,16.7236328125
1781061928.9485977,2.176329309082031,-6.1638721740722655,7.0449383850097655,3.2958984375,4.57763671875,17.15087890625
1781061928.9525928,2.117671368408203,-6.123170745849609,7.042544183349609,3.5400390625,6.34765625,17.578125
1781061928.9565928,2.109291662597656,-6.110002636718749,7.067683300781249,3.23486328125,7.38525390625,17.578125
1781061928.9605927,2.080561242675781,-6.047753393554687,7.086836914062499,3.23486328125,8.48388671875,17.822265625
1781061928.9645927,2.039859814453125,-6.019022973632812,7.1215528381347655,3.41796875,9.94873046875,18.24951171875
1781061928.9685926,2.0266917053222655,-5.983109948730468,7.137115148925781,3.0517578125,10.6201171875,18.37158203125
1781061928.9725926,1.9895815795898437,-5.92445200805664,7.186196282958984,2.8076171875,11.53564453125,18.6767578125
1781061928.9765925,1.9416975463867185,-5.862202764892578,7.230489013671875,2.197265625,12.39013671875,19.04296875
1781061928.9805925,1.8734627990722654,-5.84185205078125,7.240065820312499,1.89208984375,13.18359375,19.59228515625
1781061928.9845924,1.8555062866210936,-5.8262897399902345,7.254431030273437,1.28173828125,13.61083984375,19.6533203125
1781061928.9885924,1.8195932617187498,-5.823895538330078,7.275978845214843,0.732421875,14.16015625,19.8974609375
1781061928.9925923,1.7741034301757812,-5.838260748291015,7.316680273437499,0.3662109375,14.58740234375,20.01953125
1781061928.9965923,1.7741034301757812,-5.893327386474609,7.3286512817382805,-0.06103515625,14.892578125,20.263671875
1781061929.0005922,1.7776947326660155,-5.902904193115234,7.429207751464843,-0.6103515625,14.5263671875,20.263671875
1781061929.0045922,1.7872715393066405,-5.949591125488281,7.467514978027343,-0.91552734375,13.85498046875,20.20263671875
1781061929.0085921,1.7812860351562498,-6.019022973632812,7.545326531982422,-1.5869140625,13.427734375,19.83642578125
1781061929.012592,1.7477672119140624,-6.099228729248047,7.5465236328125,-2.25830078125,12.20703125,19.59228515625
1781061929.016592,1.686715069580078,-6.179434484863281,7.510610607910156,-2.9296875,11.90185546875,19.04296875
1781061929.020592,1.648407843017578,-6.215347509765625,7.451952667236328,-3.662109375,11.65771484375,18.37158203125
1781061929.024592,1.6160861206054686,-6.283582257080078,7.394491827392578,-4.08935546875,11.8408203125,17.578125
1781061929.0285919,1.5825672973632812,-6.321889483642578,7.34181939086914,-4.45556640625,12.3291015625,16.4794921875
1781061929.0325918,1.5586252807617187,-6.294356164550781,7.3478048950195305,-4.82177734375,13.00048828125,15.31982421875
1781061929.036489,1.5574281799316405,-6.323086584472656,7.339425189208984,-5.06591796875,13.97705078125,14.34326171875
1781061929.040489,1.5670049865722655,-6.335057592773437,7.36097300415039,-5.37109375,14.46533203125,13.0615234375
1781061929.044489,1.581370196533203,-6.355408306884765,7.3932947265625,-5.43212890625,15.2587890625,12.51220703125
1781061929.0484889,1.552639776611328,-6.318298181152343,7.40526573486328,-5.7373046875,15.5029296875,11.5966796875
1781061929.0524888,1.5705962890624998,-6.28837066040039,7.41244833984375,-5.859375,16.11328125,10.7421875
1781061929.056482,1.590947003173828,-6.204573602294921,7.417236743164062,-5.43212890625,15.9912109375,10.1318359375
1781061929.060482,1.5538368774414062,-6.210559106445312,7.471106280517578,-5.37109375,15.56396484375,9.46044921875
1781061929.064482,1.523909356689453,-6.290764862060547,7.473500482177734,-5.2490234375,15.44189453125,9.033203125
1781061929.068482,1.4173673828125,-6.271611248779297,7.495048297119141,-5.9814453125,15.31982421875,8.97216796875
1781061929.0724819,1.3299790222167969,-6.246472131347656,7.451952667236328,-6.89697265625,15.56396484375,8.6669921875
1781061929.0764818,1.2761094848632812,-6.17344898071289,7.425616448974609,-7.50732421875,15.44189453125,8.9111328125
1781061929.0804818,1.2569558715820313,-6.066907006835937,7.376535314941406,-7.6904296875,16.11328125,9.21630859375
1781061929.0844817,1.2928688964843749,-6.0154316711425775,7.352593298339843,-7.6904296875,15.380859375,10.19287109375
1781061929.0884817,1.291671795654297,-5.968744738769531,7.3837179199218745,-7.32421875,15.0146484375,11.23046875
1781061929.0924816,1.3192051147460937,-5.9579708312988275,7.432799053955078,-7.75146484375,14.09912109375,12.51220703125
1781061929.0964816,1.2473790649414063,-5.954379528808594,7.429207751464843,-7.87353515625,13.18359375,13.97705078125
1781061929.1004815,1.216254443359375,-5.942408520507812,7.413645440673828,-7.87353515625,12.0849609375,15.5029296875
1781061929.1044815,1.1623849060058593,-6.019022973632812,7.387309222412109,-8.30078125,11.1083984375,17.4560546875
1781061929.1084814,1.1192892761230469,-6.0537388977050774,7.356184600830078,-8.7890625,10.31494140625,19.10400390625
1781061929.1124814,1.0594342346191405,-6.11598814086914,7.351396197509765,-9.58251953125,9.58251953125,20.8740234375
1781061929.1164813,0.9816226806640624,-6.174646081542968,7.3657614074707025,-9.94873046875,8.9111328125,22.705078125
1781061929.1204813,1.0390835205078124,-6.208164904785156,7.363367205810547,-10.07080078125,8.23974609375,24.59716796875
1781061929.1244812,0.939724151611328,-6.324283685302734,7.429207751464843,-10.07080078125,7.62939453125,26.9775390625
1781061929.1284811,0.9085995300292968,-6.358999609374999,7.349001995849609,-10.31494140625,6.9580078125,29.052734375
1781061929.132481,1.016338604736328,-6.290764862060547,7.438784558105469,-9.521484375,5.92041015625,31.18896484375
1781061929.136481,0.9576806640625,-6.285976458740234,7.429207751464843,-8.11767578125,4.94384765625,33.02001953125
1781061929.140481,0.8702923034667969,-6.278793853759765,7.471106280517578,-6.65283203125,3.84521484375,34.7900390625
1781061929.144481,0.8595183959960937,-6.372167718505859,7.586027960205078,-5.7373046875,3.35693359375,36.376953125
1781061929.148481,0.8750807067871094,-6.394912634277343,7.641094598388672,-5.18798828125,2.38037109375,38.2080078125
1781061929.1524808,0.8379705810546875,-6.341043096923828,7.64229169921875,-4.57763671875,1.5869140625,39.55078125
1781061929.1564808,0.7900865478515624,-6.333860491943359,7.606378674316406,-4.33349609375,1.3427734375,40.58837890625
1781061929.1604807,0.7637503295898437,-6.303932971191406,7.570465649414062,-3.84521484375,1.46484375,41.50390625
1781061929.1644807,0.7481880187988281,-6.318298181152343,7.5153990112304685,-3.662109375,0.9765625,42.41943359375
1781061929.1684806,0.7972691528320313,-6.355408306884765,7.522581616210937,-3.173828125,0.1220703125,43.212890625
1781061929.1724806,0.843956085205078,-6.355408306884765,7.557297540283202,-3.23486328125,-0.48828125,43.9453125
1781061929.1764805,0.8786720092773437,-6.36498511352539,7.498639599609374,-2.74658203125,-1.52587890625,44.43359375
1781061929.1804562,0.8870517150878906,-6.392518432617187,7.4974424987792965,-2.86865234375,-2.86865234375,44.921875
1781061929.184456,0.853532891845703,-6.439205364990234,7.551312036132812,-3.0517578125,-3.2958984375,44.73876953125
1781061929.188456,0.8295908752441405,-6.489483599853515,7.522581616210937,-3.23486328125,-3.7841796875,44.49462890625
1781061929.192456,0.8379705810546875,-6.600813977050781,7.481880187988281,-3.5400390625,-4.33349609375,43.76220703125
1781061929.1964421,0.8176198669433593,-6.642712506103515,7.498639599609374,-3.5400390625,-4.0283203125,42.96875
1781061929.200442,0.8176198669433593,-6.648698010253906,7.5525091369628905,-3.662109375,-3.47900390625,41.44287109375
1781061929.204442,0.7996633544921875,-6.760028387451172,7.518990313720702,-3.47900390625,-3.35693359375,40.0390625
1781061929.208442,0.7924807495117187,-6.800729815673828,7.547720733642578,-3.23486328125,-2.8076171875,37.9638671875
1781061929.212442,0.7326257080078125,-6.924031201171875,7.5537062377929685,-3.2958984375,-1.89208984375,35.70556640625
1781061929.2164419,0.7230489013671875,-7.015010864257812,7.517793212890624,-3.2958984375,-1.0986328125,33.5693359375
1781061929.2204418,0.7314286071777343,-7.086836914062499,7.4591352722167965,-3.0517578125,-0.3662109375,31.31103515625
1781061929.2244418,0.729034405517578,-7.116764434814453,7.451952667236328,-2.44140625,0.48828125,28.564453125
1781061929.2284417,0.6859387756347656,-7.168239770507812,7.448361364746093,-1.89208984375,1.708984375,25.87890625
1781061929.2324417,0.6655880615234374,-7.179013677978515,7.3861121215820305,-1.5869140625,2.25830078125,23.4375
1781061929.2364142,0.6536170532226562,-7.167042669677734,7.3861121215820305,-1.40380859375,3.5400390625,21.3623046875
1781061929.2404141,0.6416460449218749,-7.0844427124023435,7.4232222473144525,-1.3427734375,4.638671875,18.798828125
1781061929.244414,0.6943184814453125,-7.029376074218749,7.431601953125,-1.0986328125,5.18798828125,16.7236328125
1781061929.24836,0.7146691955566405,-6.8964978820800775,7.492654095458984,-0.54931640625,5.2490234375,15.07568359375
1781061929.2523232,0.6847416748046875,-6.794744311523437,7.572859851074218,-0.3662109375,5.37109375,13.3056640625
1781061929.256323,0.689530078125,-6.7037646484375,7.6279264892578125,-0.48828125,5.126953125,11.962890625
1781061929.260323,0.7314286071777343,-6.667851623535156,7.636306195068359,0.06103515625,4.33349609375,10.55908203125
1781061929.2642696,0.7062894897460937,-6.5960255737304685,7.665036614990234,-0.06103515625,4.0283203125,8.97216796875
1781061929.2682695,0.6631938598632812,-6.544550238037109,7.600393170166015,-0.48828125,3.72314453125,7.75146484375
1781061929.2722695,0.6655880615234374,-6.515819818115234,7.5465236328125,-0.3662109375,2.9296875,6.8359375
1781061929.2762694,0.6488286499023437,-6.48589229736328,7.507019305419921,-0.1220703125,2.25830078125,5.4931640625
1781061929.2802694,0.6524199523925781,-6.433219860839843,7.481880187988281,0.0,1.77001953125,4.33349609375
1781061929.2842693,0.6607996582031249,-6.4475850708007805,7.442375860595702,0.48828125,1.40380859375,3.11279296875
1781061929.2882693,0.6524199523925781,-6.439205364990234,7.442375860595702,0.6103515625,0.54931640625,1.8310546875
1781061929.2922692,0.6452373474121094,-6.421248852539062,7.451952667236328,0.732421875,0.0,0.54931640625
1781061929.2962692,0.6596025573730468,-6.458358978271484,7.44357296142578,0.244140625,-0.54931640625,-0.79345703125
1781061929.3002691,0.699106884765625,-6.487089398193359,7.442375860595702,0.48828125,-1.15966796875,-1.953125
1781061929.304269,0.6488286499023437,-6.514622717285156,7.432799053955078,0.0,-1.64794921875,-2.99072265625
1781061929.308269,0.6212953308105469,-6.543353137207031,7.41244833984375,-0.67138671875,-1.77001953125,-4.5166015625
1781061929.312269,0.6536170532226562,-6.562506750488281,7.401674432373047,-0.48828125,-1.953125,-5.18798828125
1781061929.316269,0.6931213806152343,-6.580463262939452,7.396886029052734,-1.0986328125,-2.685546875,-6.28662109375
1781061929.3202689,0.6979097839355468,-6.5756748596191406,7.417236743164062,-1.46484375,-2.9296875,-7.080078125
1781061929.3242688,0.6859387756347656,-6.586448767089843,7.407659936523437,-1.46484375,-2.8076171875,-7.99560546875
1781061929.3282688,0.7386112121582031,-6.587645867919922,7.406462835693359,-1.15966796875,-3.2958984375,-8.4228515625
1781061929.3322687,0.7326257080078125,-6.5948284729003905,7.451952667236328,-1.5869140625,-3.173828125,-9.033203125
1781061929.3362687,0.7493851196289062,-6.5756748596191406,7.448361364746093,-1.3427734375,-3.72314453125,-9.70458984375
1781061929.3402686,0.7445967163085937,-6.5972226745605465,7.4411787597656245,-0.54931640625,-4.33349609375,-9.765625
1781061929.3442686,0.7709329345703124,-6.616376287841796,7.4399816589355465,-0.54931640625,-4.8828125,-10.25390625
1781061929.3482685,0.7565677246093749,-6.584054565429687,7.451952667236328,-0.42724609375,-4.7607421875,-10.6201171875
1781061929.3522685,0.7517793212890624,-6.593631372070312,7.466317877197265,0.06103515625,-5.37109375,-10.6201171875
1781061929.3562684,0.7649474304199219,-6.572083557128906,7.461529473876952,0.3662109375,-5.55419921875,-10.986328125
1781061929.3602684,0.7912836486816406,-6.518214019775391,7.4962453979492185,0.67138671875,-6.04248046875,-11.16943359375
1781061929.3642683,0.814028564453125,-6.524199523925781,7.472303381347656,0.54931640625,-6.04248046875,-11.65771484375
1781061929.3682683,0.8092401611328125,-6.49307490234375,7.445967163085937,0.732421875,-6.40869140625,-11.474609375
1781061929.3722682,0.8702923034667969,-6.489483599853515,7.471106280517578,0.6103515625,-6.53076171875,-11.5966796875
1781061929.3762681,0.9074024291992187,-6.472724188232421,7.475894683837891,0.67138671875,-6.65283203125,-12.0849609375
1781061929.380268,0.9337386474609375,-6.476315490722656,7.456741070556641,0.48828125,-6.9580078125,-12.0849609375
1781061929.384268,0.9157821350097656,-6.509834313964843,7.430404852294921,0.54931640625,-6.77490234375,-12.0849609375
1781061929.388268,0.9612719665527343,-6.45476767578125,7.42441934814453,0.30517578125,-6.4697265625,-11.65771484375
1781061929.392268,0.9648632690429687,-6.491877801513671,7.338228088378906,0.42724609375,-6.16455078125,-11.65771484375
1781061929.396268,1.005564697265625,-6.481103894042969,7.358578802490234,0.06103515625,-5.67626953125,-11.41357421875
1781061929.4002678,1.0199299072265624,-6.45476767578125,7.395688928222656,-0.18310546875,-5.37109375,-11.3525390625
1781061929.4042678,1.035492218017578,-6.460753179931641,7.387309222412109,-0.48828125,-4.7607421875,-10.92529296875
1781061929.4082677,1.0438719238281249,-6.496666204833984,7.389703424072265,-0.18310546875,-4.33349609375,-10.498046875
1781061929.4122677,1.0761936462402344,-6.509834313964843,7.332242584228515,0.0,-4.21142578125,-9.765625
1781061929.4162676,1.0690110412597655,-6.460753179931641,7.362170104980469,-0.18310546875,-3.90625,-9.033203125
1781061929.4202676,1.0690110412597655,-6.509834313964843,7.337030987548828,0.244140625,-3.41796875,-8.48388671875
1781061929.4242675,1.1133037719726562,-6.481103894042969,7.329848382568359,-0.1220703125,-3.72314453125,-7.62939453125
1781061929.4282675,1.0761936462402344,-6.441599566650391,7.335833886718749,0.42724609375,-3.0517578125,-7.080078125
1781061929.4322674,1.071405242919922,-6.374561920166015,7.283161450195312,0.54931640625,-2.8076171875,-6.28662109375
1781061929.4362674,1.0857704528808594,-6.363788012695312,7.2723875427246085,0.8544921875,-2.44140625,-5.55419921875
1781061929.4402673,1.0582371337890624,-6.3147068786621094,7.283161450195312,0.91552734375,-2.01416015625,-4.94384765625
1781061929.4442673,1.0474632263183594,-6.332663391113281,7.297526660156249,1.28173828125,-1.46484375,-4.33349609375
1781061929.4482672,1.0666168395996094,-6.338648895263671,7.302315063476562,1.0986328125,-1.15966796875,-3.72314453125
1781061929.4522672,1.054645831298828,-6.338648895263671,7.356184600830078,0.91552734375,-0.9765625,-3.41796875
1781061929.456267,1.061828436279297,-6.348225701904297,7.40526573486328,0.54931640625,-0.9765625,-2.8076171875
1781061929.460267,1.0594342346191405,-6.379350323486328,7.449558465576171,-0.244140625,-0.91552734375,-2.25830078125
1781061929.464267,1.083376251220703,-6.410474945068359,7.445967163085937,-0.48828125,-1.15966796875,-2.0751953125
1781061929.468267,1.0594342346191405,-6.4092778442382805,7.4770917846679685,-0.9765625,-0.9765625,-1.708984375
1781061929.472267,1.0690110412597655,-6.441599566650391,7.4591352722167965,-1.77001953125,-0.6103515625,-1.708984375
1781061929.4762669,1.073799444580078,-6.496666204833984,7.438784558105469,-2.01416015625,-0.79345703125,-1.46484375
1781061929.4802668,1.054645831298828,-6.548141540527343,7.442375860595702,-2.62451171875,-0.244140625,-1.3427734375
1781061929.4842668,1.064222637939453,-6.6139820861816405,7.414842541503906,-2.5634765625,0.0,-1.52587890625
1781061929.4882667,1.083376251220703,-6.661866119384765,7.362170104980469,-2.38037109375,0.6103515625,-1.64794921875
1781061929.4922667,1.0941501586914062,-6.714538555908203,7.319074475097656,-2.38037109375,0.9765625,-1.40380859375
1781061929.4962666,1.1037269653320312,-6.745663177490234,7.271190441894531,-1.953125,2.01416015625,-1.3427734375
1781061929.5002666,1.0654197387695312,-6.739677673339843,7.273584643554687,-1.89208984375,2.38037109375,-1.40380859375
1781061929.5042665,1.0821791503906248,-6.755239984130859,7.292738256835937,-1.3427734375,2.86865234375,-1.0986328125
1781061929.5082324,1.102529864501953,-6.743268975830078,7.316680273437499,-0.48828125,3.35693359375,-0.91552734375
1781061929.5122323,1.071405242919922,-6.72291826171875,7.335833886718749,0.30517578125,3.72314453125,-0.48828125
1781061929.5162323,1.0474632263183594,-6.696582043457031,7.325059979248047,0.91552734375,3.60107421875,-0.18310546875
1781061929.5202322,1.0307038146972656,-6.655880615234374,7.333439685058593,1.77001953125,4.08935546875,0.30517578125
1781061929.5241928,1.0319009155273438,-6.672640026855468,7.338228088378906,2.50244140625,4.2724609375,0.6103515625
1781061929.5281928,0.9983820922851562,-6.617573388671874,7.315483172607421,3.41796875,4.2724609375,0.732421875
1781061929.5321927,1.0007762939453124,-6.5768719604492185,7.340622290039062,4.33349609375,4.5166015625,1.15966796875
1781061929.5361927,0.9876081848144531,-6.519411120605469,7.359775903320312,4.5166015625,4.82177734375,1.708984375
1781061929.5401926,0.9504980590820312,-6.506243011474609,7.390900524902343,4.7607421875,4.57763671875,2.01416015625
1781061929.5441926,0.9624690673828125,-6.48589229736328,7.4232222473144525,4.638671875,4.45556640625,2.44140625
1781061929.5481925,0.939724151611328,-6.4643444824218745,7.4579381713867186,4.57763671875,4.2724609375,2.685546875
1781061929.5521924,0.9361328491210937,-6.453570574951171,7.491456994628906,4.150390625,3.90625,2.86865234375
1781061929.556184,0.9433154541015625,-6.4284314575195305,7.504625103759765,4.150390625,3.5400390625,3.173828125
1781061929.560184,0.9409212524414062,-6.420051751708984,7.495048297119141,3.84521484375,3.41796875,3.35693359375
1781061929.564184,0.9241618408203125,-6.430825659179687,7.4974424987792965,3.662109375,3.11279296875,3.5400390625
1781061929.568184,0.9193734375,-6.445190869140625,7.468712078857421,3.35693359375,3.173828125,3.35693359375
1781061929.5721838,0.9325415466308593,-6.440402465820312,7.447164263916015,2.99072265625,2.8076171875,3.11279296875
1781061929.5761838,0.9349357482910156,-6.451176373291015,7.433996154785156,2.8076171875,2.99072265625,2.99072265625
1781061929.5801837,0.8978256225585937,-6.449979272460937,7.378929516601562,2.74658203125,3.23486328125,2.50244140625
1781061929.5841837,0.8942343200683593,-6.490680700683593,7.339425189208984,2.13623046875,3.173828125,2.25830078125
1781061929.5881836,0.9002198242187499,-6.453570574951171,7.356184600830078,2.13623046875,3.662109375,1.77001953125
1781061929.5921836,0.8774749084472656,-6.463147381591797,7.359775903320312,2.01416015625,3.5400390625,0.732421875
1781061929.5961835,0.8942343200683593,-6.439205364990234,7.375338214111328,1.708984375,3.23486328125,0.6103515625
1781061929.6001835,0.8894459167480468,-6.399701037597656,7.378929516601562,1.46484375,3.23486328125,0.30517578125
1781061929.6041834,0.9062053283691406,-6.357802508544921,7.389703424072265,0.9765625,2.86865234375,-0.1220703125
1781061929.6081834,0.8942343200683593,-6.309918475341797,7.371746911621093,0.3662109375,2.74658203125,-0.30517578125
1781061929.6121833,0.8894459167480468,-6.289567761230469,7.396886029052734,0.06103515625,2.3193359375,-0.8544921875
1781061929.6161833,0.852335791015625,-6.238092425537109,7.401674432373047,-0.244140625,2.3193359375,-1.03759765625
1781061929.6201832,0.86191259765625,-6.259640240478515,7.411251239013671,-0.9765625,2.25830078125,-1.3427734375
1781061929.6241832,0.843956085205078,-6.247669232177734,7.417236743164062,-1.5869140625,1.89208984375,-1.52587890625
1781061929.6281831,0.8559270935058593,-6.264428643798828,7.438784558105469,-1.89208984375,1.8310546875,-1.5869140625
1781061929.632183,0.8702923034667969,-6.276399652099609,7.4208280456542965,-2.38037109375,1.15966796875,-1.52587890625
1781061929.636183,0.8750807067871094,-6.301538769531249,7.408857037353515,-2.62451171875,0.54931640625,-1.46484375
1781061929.640183,0.8990227233886718,-6.343437298583984,7.410054138183593,-3.173828125,0.1220703125,-1.5869140625
1781061929.644183,0.8726865051269531,-6.3709706176757805,7.430404852294921,-3.35693359375,-0.42724609375,-1.03759765625
1781061929.6481829,0.8487444885253905,-6.400898138427734,7.416039642333984,-3.47900390625,-0.8544921875,-0.91552734375
1781061929.6521828,0.8667010009765624,-6.405686541748047,7.395688928222656,-3.72314453125,-0.8544921875,-0.79345703125
1781061929.6561828,0.8786720092773437,-6.433219860839843,7.429207751464843,-3.47900390625,-1.28173828125,-0.54931640625
1781061929.6601827,0.8559270935058593,-6.487089398193359,7.410054138183593,-3.35693359375,-1.03759765625,-0.3662109375
1781061929.6641827,0.8882488159179687,-6.517016918945312,7.401674432373047,-3.23486328125,-1.15966796875,-0.1220703125
1781061929.6681826,0.8882488159179687,-6.5038488098144525,7.408857037353515,-3.11279296875,-1.15966796875,-0.06103515625
1781061929.6721826,0.8786720092773437,-6.505045910644531,7.407659936523437,-2.74658203125,-0.91552734375,0.1220703125
1781061929.6761825,0.8607154968261719,-6.519411120605469,7.390900524902343,-2.5634765625,-0.67138671875,0.244140625
1781061929.6801825,0.8882488159179687,-6.526593725585937,7.39928023071289,-2.50244140625,-0.48828125,0.3662109375
1781061929.6841824,0.8631096984863281,-6.482300994873047,7.4028715332031245,-2.3193359375,-0.06103515625,0.79345703125
1781061929.6881824,0.8702923034667969,-6.4739212890625,7.411251239013671,-2.13623046875,0.1220703125,1.28173828125
1781061929.6921823,0.8978256225585937,-6.4655415832519525,7.39928023071289,-2.01416015625,0.18310546875,1.0986328125
1781061929.6961823,0.8906430175781249,-6.443993768310547,7.447164263916015,-1.77001953125,0.18310546875,1.28173828125
1781061929.7001822,0.8690952026367187,-6.443993768310547,7.468712078857421,-2.01416015625,0.42724609375,1.5869140625
1781061929.7041821,0.8846575134277344,-6.41646044921875,7.455543969726562,-2.0751953125,-0.1220703125,1.64794921875
1781061929.708182,0.853532891845703,-6.40329234008789,7.442375860595702,-2.13623046875,0.06103515625,1.953125
1781061929.712182,0.8367734802246093,-6.440402465820312,7.4411787597656245,-2.25830078125,0.0,1.8310546875
1781061929.716182,0.8295908752441405,-6.440402465820312,7.389703424072265,-2.50244140625,0.30517578125,1.5869140625
1781061929.720182,0.8128314636230468,-6.453570574951171,7.369352709960937,-2.86865234375,0.244140625,1.3427734375
1781061929.724182,0.8164227661132812,-6.442796667480469,7.343016491699219,-2.99072265625,0.54931640625,1.15966796875
1781061929.7281818,0.833182177734375,-6.4356140625,7.3549875,-3.2958984375,0.18310546875,0.91552734375
1781061929.7321818,0.8355763793945312,-6.440402465820312,7.371746911621093,-3.662109375,0.42724609375,0.732421875
1781061929.7361817,0.8319850769042968,-6.433219860839843,7.362170104980469,-3.662109375,0.244140625,0.244140625
1781061929.7401817,0.8128314636230468,-6.467935784912109,7.339425189208984,-4.150390625,0.18310546875,0.06103515625
1781061929.744179,0.8283937744140625,-6.442796667480469,7.335833886718749,-4.2724609375,0.1220703125,-0.06103515625
1781061929.748179,0.7996633544921875,-6.478709692382812,7.313088970947265,-4.39453125,0.06103515625,-0.244140625
1781061929.752179,0.8176198669433593,-6.471527087402343,7.323862878417969,-4.5166015625,0.0,-0.54931640625
1781061929.7561789,0.8212111694335937,-6.479906793212891,7.281964349365234,-4.39453125,0.18310546875,-0.6103515625
1781061929.7601788,0.8080430603027343,-6.449979272460937,7.285555651855469,-4.21142578125,0.06103515625,-0.3662109375
1781061929.7641494,0.8152256652832031,-6.445190869140625,7.30351216430664,-4.5166015625,0.18310546875,-0.18310546875
1781061929.7681494,0.8319850769042968,-6.4475850708007805,7.311891870117187,-4.39453125,0.244140625,-0.18310546875
1781061929.7721493,0.8056488586425781,-6.4655415832519525,7.301117962646484,-4.33349609375,0.42724609375,0.1220703125
1781061929.7761493,0.8152256652832031,-6.477512591552734,7.349001995849609,-4.33349609375,0.30517578125,0.06103515625
1781061929.7801492,0.8128314636230468,-6.4834980957031245,7.368155609130859,-4.45556640625,0.48828125,0.42724609375
1781061929.7840347,0.8295908752441405,-6.505045910644531,7.359775903320312,-4.21142578125,0.48828125,0.54931640625
1781061929.7880347,0.8104372619628906,-6.5589154479980465,7.3932947265625,-4.150390625,0.30517578125,0.8544921875
1781061929.7920346,0.834379278564453,-6.562506750488281,7.41244833984375,-3.90625,0.42724609375,0.8544921875
1781061929.7960346,0.8499415893554687,-6.599616876220702,7.416039642333984,-3.90625,0.06103515625,0.91552734375
1781061929.8000345,0.8259995727539062,-6.692990740966796,7.38012661743164,-3.5400390625,0.18310546875,1.03759765625
1781061929.8040345,0.8188169677734375,-6.730100866699218,7.388506323242187,-3.173828125,0.244140625,1.0986328125
1781061929.8080344,0.8499415893554687,-6.775590698242187,7.350199096679687,-2.685546875,0.244140625,0.732421875
1781061929.8120344,0.8858546142578124,-6.8031240173339835,7.337030987548828,-2.3193359375,0.42724609375,0.67138671875
1781061929.8160343,0.8810662109374999,-6.84382544555664,7.317877374267578,-1.5869140625,0.91552734375,0.42724609375
1781061929.8200343,0.8690952026367187,-6.847416748046874,7.28435855102539,-0.91552734375,1.03759765625,0.30517578125
1781061929.8240342,0.8786720092773437,-6.842628344726562,7.286752752685547,-0.30517578125,1.708984375,0.0
1781061929.8280342,0.8667010009765624,-6.819883428955078,7.26520493774414,0.1220703125,1.953125,-0.54931640625
1781061929.832034,0.8559270935058593,-6.809109521484374,7.278373046874999,0.732421875,2.50244140625,-0.91552734375
1781061929.836034,0.8607154968261719,-6.774393597412109,7.2915411560058585,1.15966796875,2.5634765625,-1.28173828125
1781061929.840034,0.8726865051269531,-6.6893994384765625,7.295132458496093,1.28173828125,2.74658203125,-1.46484375
1781061929.844034,0.8595183959960937,-6.654683514404296,7.308300567626953,1.52587890625,2.8076171875,-1.708984375
1781061929.848034,0.8667010009765624,-6.599616876220702,7.334636785888671,0.79345703125,2.99072265625,-1.77001953125
1781061929.8520339,0.8858546142578124,-6.5038488098144525,7.3861121215820305,0.67138671875,2.685546875,-2.01416015625
1781061929.8560338,0.8858546142578124,-6.420051751708984,7.3861121215820305,0.30517578125,2.5634765625,-1.89208984375
1781061929.8600338,0.8583212951660156,-6.3709706176757805,7.396886029052734,-0.67138671875,2.01416015625,-1.8310546875
1781061929.8640337,0.8786720092773437,-6.341043096923828,7.416039642333984,-1.15966796875,1.77001953125,-1.77001953125
1781061929.8680336,0.8738836059570312,-6.303932971191406,7.416039642333984,-1.77001953125,1.40380859375,-1.5869140625
1781061929.8720336,0.8463502868652343,-6.283582257080078,7.407659936523437,-2.685546875,1.3427734375,-1.15966796875
1781061929.8760335,0.8607154968261719,-6.238092425537109,7.401674432373047,-3.47900390625,0.9765625,-0.9765625
1781061929.8800206,0.8631096984863281,-6.251260534667968,7.4232222473144525,-3.96728515625,0.8544921875,-0.732421875
1781061929.8840206,0.833182177734375,-6.259640240478515,7.425616448974609,-4.7607421875,0.732421875,-0.3662109375
1781061929.8880205,0.8451531860351562,-6.254851837158203,7.41244833984375,-5.37109375,0.3662109375,0.244140625
1781061929.8920033,0.8559270935058593,-6.301538769531249,7.4220251464843745,-6.16455078125,0.48828125,0.1220703125
1781061929.8960032,0.853532891845703,-6.369773516845703,7.429207751464843,-6.65283203125,0.0,0.6103515625
1781061929.9000032,0.8379705810546875,-6.438008264160156,7.416039642333984,-7.01904296875,-0.244140625,0.732421875
1781061929.9040031,0.8738836059570312,-6.488286499023437,7.392097625732421,-7.080078125,-0.1220703125,1.220703125
1781061929.908003,0.8702923034667969,-6.582857464599609,7.39928023071289,-7.14111328125,-0.48828125,1.46484375
1781061929.912003,0.8355763793945312,-6.5960255737304685,7.388506323242187,-6.9580078125,-0.42724609375,1.8310546875
1781061929.916003,0.8295908752441405,-6.6714429260253905,7.3837179199218745,-6.8359375,-0.6103515625,1.953125
1781061929.920003,0.8355763793945312,-6.654683514404296,7.362170104980469,-5.859375,-0.48828125,2.3193359375
1781061929.924003,0.8259995727539062,-6.700173345947265,7.349001995849609,-5.615234375,-0.79345703125,2.44140625
1781061929.9280028,0.8487444885253905,-6.700173345947265,7.357381701660156,-4.638671875,-0.42724609375,2.86865234375
1781061929.9320028,0.8188169677734375,-6.6905965393066404,7.37414111328125,-4.150390625,-0.48828125,2.86865234375
1781061929.9360027,0.8379705810546875,-6.68461103515625,7.3861121215820305,-3.35693359375,-0.30517578125,3.23486328125
1781061929.9400027,0.8463502868652343,-6.673837127685546,7.398083129882812,-2.99072265625,-0.244140625,3.47900390625
1781061929.9440026,0.824802471923828,-6.6714429260253905,7.447164263916015,-2.62451171875,-0.3662109375,3.60107421875
1781061929.9480026,0.8307879760742187,-6.667851623535156,7.435193255615234,-2.0751953125,-0.67138671875,3.90625
1781061929.9520025,0.8355763793945312,-6.666654522705078,7.46272657470703,-1.708984375,-0.732421875,4.08935546875
1781061929.9560025,0.833182177734375,-6.672640026855468,7.491456994628906,-1.8310546875,-0.79345703125,4.150390625
1781061929.9600024,0.8008604553222656,-6.678625531005859,7.4782888854980465,-1.89208984375,-0.91552734375,4.5166015625
1781061929.9640024,0.8200140686035156,-6.694187841796874,7.46272657470703,-1.28173828125,-0.8544921875,4.150390625
1781061929.9680023,0.8128314636230468,-6.6702458251953125,7.474697583007812,-1.220703125,-1.220703125,4.33349609375
1781061929.9720023,0.7924807495117187,-6.702567547607422,7.46272657470703,-0.9765625,-0.8544921875,4.33349609375
1781061929.9760022,0.8188169677734375,-6.70975015258789,7.445967163085937,-0.8544921875,-0.732421875,4.08935546875
1781061929.9800022,0.82360537109375,-6.687005236816406,7.44357296142578,-0.8544921875,-0.79345703125,3.96728515625
1781061929.984002,0.7972691528320313,-6.696582043457031,7.4603323730468745,-0.732421875,-0.67138671875,3.7841796875
1781061929.988002,0.7984662536621093,-6.7085530517578125,7.463923675537109,-0.3662109375,-1.0986328125,3.47900390625
1781061929.992002,0.7960720520019531,-6.6714429260253905,7.484274389648437,-0.48828125,-0.8544921875,3.2958984375
1781061929.996002,0.7936778503417968,-6.6702458251953125,7.461529473876952,-0.54931640625,-1.28173828125,2.99072265625
1781061930.000002,0.7972691528320313,-6.657077716064452,7.4579381713867186,-0.42724609375,-1.40380859375,2.86865234375
1781061930.0040019,0.7769184387207031,-6.657077716064452,7.449558465576171,-0.6103515625,-1.46484375,2.8076171875
1781061930.0080018,0.7649474304199219,-6.640318304443359,7.4603323730468745,-0.42724609375,-1.52587890625,2.44140625
1781061930.0120018,0.7876923461914062,-6.616376287841796,7.445967163085937,-0.48828125,-1.5869140625,2.62451171875
1781061930.0160017,0.7948749511718749,-6.610390783691406,7.4603323730468745,-0.30517578125,-2.0751953125,2.0751953125
1781061930.0200016,0.7960720520019531,-6.618770489501952,7.442375860595702,-0.67138671875,-2.13623046875,2.197265625
1781061930.0240016,0.7888894470214843,-6.612784985351562,7.426813549804687,-0.54931640625,-2.3193359375,2.197265625
1781061930.0280015,0.7841010437011718,-6.624755993652343,7.431601953125,-0.30517578125,-2.44140625,1.77001953125
1781061930.0320015,0.7936778503417968,-6.617573388671874,7.4220251464843745,-0.244140625,-2.8076171875,1.8310546875
1781061930.0360014,0.7960720520019531,-6.603208178710937,7.3837179199218745,-0.18310546875,-2.99072265625,1.5869140625
1781061930.0400014,0.7912836486816406,-6.676231329345702,7.396886029052734,-0.30517578125,-2.99072265625,1.40380859375
1781061930.0440013,0.7505822204589844,-6.659471917724609,7.369352709960937,0.06103515625,-3.23486328125,1.220703125
1781061930.0480013,0.7673416320800781,-6.654683514404296,7.381323718261719,0.06103515625,-3.60107421875,1.28173828125
1781061930.0520012,0.7661445312499999,-6.688202337646484,7.381323718261719,0.3662109375,-3.662109375,0.8544921875
1781061930.0559614,0.7577648254394531,-6.677428430175781,7.368155609130859,0.18310546875,-3.5400390625,0.48828125
1781061930.0599613,0.7541735229492187,-6.730100866699218,7.356184600830078,0.48828125,-3.96728515625,0.48828125
1781061930.0639613,0.7661445312499999,-6.742071875,7.352593298339843,0.48828125,-3.96728515625,0.06103515625
1781061930.0679612,0.7553706237792969,-6.740874774169922,7.343016491699219,1.03759765625,-4.21142578125,0.244140625
1781061930.0719612,0.7972691528320313,-6.76122548828125,7.382520819091797,1.03759765625,-4.2724609375,0.1220703125
1781061930.075961,0.814028564453125,-6.740874774169922,7.363367205810547,1.15966796875,-4.45556640625,0.18310546875
1781061930.079961,0.7948749511718749,-6.740874774169922,7.320271575927734,1.40380859375,-4.638671875,-0.18310546875
1781061930.0839086,0.814028564453125,-6.698976245117187,7.314286071777343,1.8310546875,-4.39453125,-0.1220703125
1781061930.0878577,0.7924807495117187,-6.675034228515624,7.296329559326171,2.0751953125,-4.5166015625,-0.06103515625
1781061930.0918534,0.8116343627929687,-6.677428430175781,7.299920861816406,2.38037109375,-4.638671875,-0.1220703125
1781061930.0958533,0.8391676818847655,-6.648698010253906,7.301117962646484,2.44140625,-4.7607421875,-0.3662109375
1781061930.0998533,0.8475473876953125,-6.598419775390624,7.264007836914062,2.5634765625,-4.69970703125,-0.48828125
1781061930.1038532,0.8499415893554687,-6.599616876220702,7.260416534423828,2.86865234375,-4.7607421875,-0.30517578125
1781061930.1078532,0.8403647827148437,-6.5780690612792965,7.247248425292969,3.173828125,-4.82177734375,-0.54931640625
1781061930.1118531,0.853532891845703,-6.570886456298828,7.219715106201171,3.2958984375,-4.5166015625,-0.6103515625
1781061930.115853,0.852335791015625,-6.544550238037109,7.201758593749999,3.23486328125,-4.39453125,-0.54931640625
1781061930.119843,0.8367734802246093,-6.532579229736328,7.165845568847656,3.173828125,-4.08935546875,-1.03759765625
1781061930.123843,0.8547299926757812,-6.508637213134765,7.189787585449218,2.9296875,-3.90625,-1.0986328125
1781061930.127843,0.8487444885253905,-6.489483599853515,7.181407879638671,2.62451171875,-3.662109375,-1.220703125
1781061930.1318429,0.8283937744140625,-6.475118389892578,7.200561492919921,1.89208984375,-3.662109375,-1.52587890625
1781061930.1358428,0.8068459594726562,-6.4846951965332025,7.206546997070312,1.46484375,-3.41796875,-1.708984375
1781061930.1398427,0.853532891845703,-6.460753179931641,7.240065820312499,0.6103515625,-3.173828125,-1.708984375
1781061930.1438427,0.8307879760742187,-6.495469104003906,7.262810736083984,0.18310546875,-3.2958984375,-1.64794921875
1781061930.1478426,0.843956085205078,-6.511031414794921,7.259219433593749,-0.18310546875,-3.0517578125,-1.46484375
1781061930.1518426,0.8451531860351562,-6.514622717285156,7.296329559326171,-0.244140625,-3.0517578125,-1.52587890625
1781061930.1558425,0.82360537109375,-6.530185028076171,7.281964349365234,-0.732421875,-3.11279296875,-1.3427734375
1781061930.1598425,0.7900865478515624,-6.546944439697265,7.2903440551757805,-1.0986328125,-2.62451171875,-0.9765625
1781061930.1638424,0.8044517578125,-6.5218053222656245,7.2532339294433585,-0.79345703125,-2.74658203125,-0.91552734375
1781061930.1678424,0.8032546569824218,-6.532579229736328,7.254431030273437,-1.03759765625,-2.8076171875,-0.91552734375
1781061930.1718423,0.8355763793945312,-6.542156036376952,7.264007836914062,-0.91552734375,-3.0517578125,-0.3662109375
1781061930.1758118,0.8559270935058593,-6.5601125488281244,7.243657122802734,-0.67138671875,-3.173828125,0.1220703125
1781061930.1798117,0.8319850769042968,-6.536170532226562,7.275978845214843,-0.67138671875,-3.173828125,0.244140625
1781061930.1838117,0.843956085205078,-6.518214019775391,7.298723760986328,-0.8544921875,-3.41796875,0.6103515625
1781061930.1878116,0.8511386901855468,-6.524199523925781,7.280767248535156,-0.8544921875,-3.35693359375,0.79345703125
1781061930.191801,0.8475473876953125,-6.523002423095702,7.286752752685547,-0.732421875,-3.5400390625,1.40380859375
1781061930.195801,0.8367734802246093,-6.554127044677734,7.308300567626953,-1.03759765625,-3.5400390625,1.708984375
1781061930.199801,0.853532891845703,-6.545747338867187,7.293935357666015,-0.9765625,-3.35693359375,1.5869140625
1781061930.203801,0.842758984375,-6.555324145507812,7.281964349365234,-0.9765625,-3.5400390625,2.01416015625
1781061930.2078009,0.86191259765625,-6.5768719604492185,7.256825231933593,-0.79345703125,-3.35693359375,2.01416015625
1781061930.2118008,0.8559270935058593,-6.573280657958984,7.256825231933593,-1.03759765625,-3.0517578125,1.89208984375
1781061930.2158008,0.843956085205078,-6.6319385986328125,7.229291912841797,-0.91552734375,-2.9296875,2.0751953125
1781061930.2198007,0.8631096984863281,-6.654683514404296,7.201758593749999,-1.15966796875,-2.86865234375,1.953125
1781061930.2238007,0.8870517150878906,-6.647500909423828,7.18859048461914,-1.0986328125,-2.8076171875,1.77001953125
1781061930.2278006,0.8547299926757812,-6.635529901123046,7.195773089599609,-0.9765625,-2.8076171875,1.8310546875
1781061930.2318006,0.8391676818847655,-6.6319385986328125,7.193378887939453,-0.8544921875,-2.5634765625,1.89208984375
1781061930.2358005,0.852335791015625,-6.612784985351562,7.189787585449218,-0.91552734375,-2.5634765625,1.64794921875
1781061930.2398005,0.8379705810546875,-6.5768719604492185,7.181407879638671,-1.0986328125,-2.25830078125,1.89208984375
1781061930.2438004,0.833182177734375,-6.545747338867187,7.184999182128906,-1.03759765625,-2.3193359375,1.8310546875
1781061930.2478004,0.8571241943359375,-6.537367633056641,7.199364392089843,-1.03759765625,-2.50244140625,2.13623046875
1781061930.2518003,0.842758984375,-6.53138212890625,7.224503509521484,-1.0986328125,-2.685546875,2.3193359375
1781061930.2558002,0.8355763793945312,-6.542156036376952,7.238868719482421,-1.40380859375,-2.44140625,2.685546875
1781061930.2598002,0.8283937744140625,-6.5505357421875,7.248445526123047,-1.46484375,-2.9296875,2.99072265625
1781061930.2638001,0.8355763793945312,-6.517016918945312,7.266402038574219,-1.5869140625,-3.173828125,3.41796875
1781061930.2678,0.8595183959960937,-6.5505357421875,7.271190441894531,-1.77001953125,-3.41796875,3.2958984375
1781061930.2718,0.82360537109375,-6.546944439697265,7.299920861816406,-1.89208984375,-3.72314453125,3.41796875
1781061930.2758,0.8379705810546875,-6.570886456298828,7.2903440551757805,-1.77001953125,-3.72314453125,3.84521484375
1781061930.2798,0.8451531860351562,-6.5409589355468745,7.268796240234375,-1.89208984375,-3.84521484375,4.150390625
1781061930.2838,0.8571241943359375,-6.552929943847656,7.2723875427246085,-1.89208984375,-4.0283203125,4.45556640625
1781061930.2877998,0.8367734802246093,-6.5756748596191406,7.240065820312499,-1.708984375,-3.84521484375,4.57763671875
1781061930.2917998,0.8607154968261719,-6.561309649658202,7.24605132446289,-1.52587890625,-3.72314453125,4.33349609375
1781061930.2957997,0.8607154968261719,-6.533776330566406,7.249642626953125,-1.708984375,-3.90625,4.45556640625
1781061930.2997997,0.8667010009765624,-6.533776330566406,7.235277416992187,-1.64794921875,-3.662109375,4.69970703125
1781061930.3037996,0.8786720092773437,-6.519411120605469,7.248445526123047,-1.28173828125,-3.47900390625,4.8828125
1781061930.3077996,0.8894459167480468,-6.5206082214355465,7.262810736083984,-1.708984375,-3.35693359375,4.8828125
1781061930.3117995,0.9074024291992187,-6.506243011474609,7.275978845214843,-1.40380859375,-3.47900390625,4.8828125
1781061930.3157995,0.8942343200683593,-6.536170532226562,7.266402038574219,-1.708984375,-3.41796875,4.94384765625
1781061930.3197994,0.9157821350097656,-6.555324145507812,7.261613635253906,-2.01416015625,-3.11279296875,5.06591796875
1781061930.3237994,0.8894459167480468,-6.5780690612792965,7.271190441894531,-2.13623046875,-3.35693359375,5.31005859375
1781061930.3277993,0.8894459167480468,-6.5780690612792965,7.264007836914062,-2.25830078125,-3.23486328125,5.0048828125
1781061930.3317993,0.9002198242187499,-6.581660363769531,7.2532339294433585,-2.38037109375,-3.11279296875,5.0048828125
1781061930.3357992,0.8714894042968749,-6.600813977050781,7.26520493774414,-2.62451171875,-2.9296875,4.69970703125
1781061930.3397992,0.8906430175781249,-6.637924102783202,7.269993341064453,-2.38037109375,-2.9296875,4.57763671875
1781061930.343799,0.8714894042968749,-6.625953094482422,7.269993341064453,-2.0751953125,-2.99072265625,4.5166015625
1781061930.347799,0.9026140258789062,-6.628347296142578,7.264007836914062,-1.953125,-2.9296875,4.5166015625
1781061930.351799,0.9229647399902343,-6.655880615234374,7.266402038574219,-1.89208984375,-3.0517578125,4.21142578125
1781061930.355799,0.8798691101074219,-6.647500909423828,7.287949853515625,-1.5869140625,-3.0517578125,4.0283203125
1781061930.359799,0.8882488159179687,-6.657077716064452,7.269993341064453,-1.708984375,-2.62451171875,3.84521484375
1781061930.3637989,0.8798691101074219,-6.653486413574218,7.299920861816406,-1.52587890625,-2.3193359375,3.84521484375
1781061930.3677988,0.9026140258789062,-6.678625531005859,7.274781744384765,-1.3427734375,-2.74658203125,3.7841796875
1781061930.3717988,0.9074024291992187,-6.6510922119140625,7.316680273437499,-1.52587890625,-2.50244140625,3.7841796875
1781061930.3757987,0.9301473449707031,-6.641515405273437,7.331045483398437,-1.64794921875,-2.86865234375,3.60107421875
1781061930.3797972,0.9205705383300781,-6.6271501953125,7.359775903320312,-1.52587890625,-2.685546875,3.41796875
1781061930.3837972,0.948103857421875,-6.618770489501952,7.375338214111328,-1.77001953125,-2.5634765625,3.41796875
1781061930.3877873,0.9433154541015625,-6.6331356994628905,7.3478048950195305,-1.52587890625,-2.62451171875,3.47900390625
1781061930.3917873,0.949300958251953,-6.653486413574218,7.340622290039062,-1.77001953125,-2.3193359375,3.41796875
1781061930.3957872,0.9169792358398436,-6.648698010253906,7.340622290039062,-1.708984375,-2.38037109375,2.99072265625
1781061930.3997202,0.9229647399902343,-6.675034228515624,7.316680273437499,-1.5869140625,-1.89208984375,3.173828125
1781061930.4036944,0.93852705078125,-6.663063220214843,7.314286071777343,-1.46484375,-1.5869140625,2.8076171875
1781061930.4076943,0.9576806640625,-6.673837127685546,7.343016491699219,-1.52587890625,-1.46484375,2.74658203125
1781061930.4116943,0.9840168823242187,-6.681019732666015,7.278373046874999,-1.40380859375,-1.3427734375,2.62451171875
1781061930.4156294,0.9528922607421875,-6.691793640136718,7.278373046874999,-1.0986328125,-0.8544921875,2.44140625
1781061930.4196293,0.9516951599121093,-6.675034228515624,7.260416534423828,-0.91552734375,-0.79345703125,2.13623046875
1781061930.4236293,0.9540893615722655,-6.712144354248046,7.237671618652343,-0.732421875,-0.3662109375,1.46484375
1781061930.4276292,0.93852705078125,-6.695384942626953,7.240065820312499,-0.8544921875,-0.30517578125,1.5869140625
1781061930.431594,0.9241618408203125,-6.70975015258789,7.238868719482421,-0.8544921875,-0.3662109375,1.220703125
1781061930.4355938,0.949300958251953,-6.697779144287109,7.238868719482421,-0.91552734375,-0.244140625,0.9765625
1781061930.4395938,0.9301473449707031,-6.700173345947265,7.248445526123047,-0.9765625,0.0,1.03759765625
1781061930.4435937,0.9421183532714843,-6.702567547607422,7.26520493774414,-0.9765625,-0.18310546875,0.8544921875
1781061930.4475937,0.9564835632324218,-6.706158850097656,7.268796240234375,-1.0986328125,-0.30517578125,0.67138671875
1781061930.4515936,0.9540893615722655,-6.6714429260253905,7.271190441894531,-1.3427734375,-0.6103515625,0.6103515625
1781061930.4555936,0.978031378173828,-6.681019732666015,7.275978845214843,-1.220703125,-0.732421875,0.54931640625
1781061930.4595935,0.9528922607421875,-6.68461103515625,7.287949853515625,-1.15966796875,-0.79345703125,0.48828125
1781061930.4635935,0.9947907897949219,-6.676231329345702,7.24605132446289,-1.3427734375,-0.79345703125,0.48828125
1781061930.4675934,0.9792284790039062,-6.697779144287109,7.240065820312499,-0.91552734375,-0.9765625,0.6103515625
1781061930.4715934,0.9732429748535155,-6.640318304443359,7.212532501220703,-0.8544921875,-0.8544921875,0.3662109375
1781061930.4755933,0.9816226806640624,-6.6522893127441405,7.208941198730468,-0.732421875,-1.0986328125,0.54931640625
1781061930.4795933,0.9971849914550781,-6.676231329345702,7.182604980468749,-0.54931640625,-1.03759765625,0.54931640625
1781061930.4835932,0.9852139831542969,-6.640318304443359,7.183802081298828,-0.18310546875,-1.220703125,0.42724609375
1781061930.4875932,1.01514150390625,-6.636727001953124,7.163451367187499,-0.18310546875,-1.40380859375,0.54931640625
1781061930.4915805,1.0019733947753906,-6.618770489501952,7.1586629638671875,-0.1220703125,-1.3427734375,0.6103515625
1781061930.4955804,1.0031704956054688,-6.6271501953125,7.146691955566406,0.06103515625,-1.40380859375,0.732421875
1781061930.4995804,0.9983820922851562,-6.598419775390624,7.135918048095703,0.1220703125,-1.15966796875,0.67138671875
1781061930.5035803,0.9995791931152344,-6.58884296875,7.141903552246093,-0.06103515625,-1.40380859375,0.8544921875
1781061930.5075803,0.9911994873046874,-6.590040069580078,7.153874560546875,-0.244140625,-0.9765625,0.79345703125
1781061930.5115802,0.9612719665527343,-6.591237170410156,7.145494854736327,-0.48828125,-1.03759765625,0.79345703125
1781061930.5155802,0.9756371765136718,-6.5780690612792965,7.157465863037109,-0.54931640625,-0.79345703125,0.79345703125
1781061930.5195801,0.9876081848144531,-6.5948284729003905,7.168239770507812,-0.9765625,-0.30517578125,0.67138671875
1781061930.52358,0.9900023864746094,-6.600813977050781,7.195773089599609,-1.220703125,0.0,0.6103515625
1781061930.52758,0.9648632690429687,-6.603208178710937,7.210138299560547,-1.953125,-0.06103515625,0.3662109375
1781061930.53158,0.967257470703125,-6.600813977050781,7.216123803710937,-2.01416015625,0.42724609375,0.30517578125
1781061930.53558,0.9229647399902343,-6.616376287841796,7.224503509521484,-2.44140625,1.03759765625,0.244140625
1781061930.5395799,0.9504980590820312,-6.618770489501952,7.20774409790039,-2.50244140625,1.03759765625,0.244140625
1781061930.5435798,0.9409212524414062,-6.661866119384765,7.230489013671875,-2.685546875,1.3427734375,-0.1220703125
1781061930.5475798,0.9349357482910156,-6.7037646484375,7.218518005371093,-2.62451171875,1.52587890625,-0.244140625
1781061930.5515797,0.9361328491210937,-6.734889270019531,7.22689771118164,-3.0517578125,1.28173828125,-0.30517578125
1781061930.5555797,0.9181763366699218,-6.72890376586914,7.252036828613281,-3.173828125,1.52587890625,-0.42724609375
1781061930.5595796,0.9002198242187499,-6.762422589111328,7.2532339294433585,-3.5400390625,1.52587890625,-0.42724609375
1781061930.5635796,0.9014169250488281,-6.8031240173339835,7.268796240234375,-3.5400390625,1.8310546875,-0.67138671875
1781061930.5675795,0.9026140258789062,-6.831854437255859,7.26520493774414,-3.35693359375,1.8310546875,-0.732421875
1781061930.5715795,0.8822633117675781,-6.873752966308594,7.264007836914062,-3.173828125,1.89208984375,-0.8544921875
1781061930.5755794,0.8858546142578124,-6.884526873779296,7.256825231933593,-2.62451171875,1.8310546875,-0.9765625
1781061930.5795794,0.8750807067871094,-6.892906579589844,7.222109307861328,-2.38037109375,1.89208984375,-1.0986328125
1781061930.5835793,0.8702923034667969,-6.931213806152344,7.220912207031249,-1.953125,2.3193359375,-1.03759765625
1781061930.5875793,0.9014169250488281,-6.963535528564453,7.219715106201171,-1.3427734375,2.3193359375,-1.03759765625
1781061930.5915792,0.8607154968261719,-6.9539587219238275,7.204152795410156,-0.67138671875,2.38037109375,-1.3427734375
1781061930.5955791,0.8655039001464844,-6.9527616210937495,7.225700610351562,-0.244140625,2.197265625,-1.3427734375
1781061930.599579,0.8475473876953125,-6.965929730224609,7.235277416992187,0.3662109375,2.197265625,-1.0986328125
1781061930.603579,0.8116343627929687,-6.913257293701172,7.242460021972656,0.79345703125,2.197265625,-1.0986328125
1781061930.607579,0.8212111694335937,-6.906074688720703,7.240065820312499,1.15966796875,2.3193359375,-1.40380859375
1781061930.611579,0.8259995727539062,-6.867767462158203,7.244854223632812,1.3427734375,1.8310546875,-1.0986328125
1781061930.615579,0.8200140686035156,-6.829460235595703,7.267599139404297,1.708984375,1.89208984375,-1.3427734375
1781061930.6195788,0.8164227661132812,-6.830657336425781,7.283161450195312,1.52587890625,1.5869140625,-1.15966796875
1781061930.6235788,0.8128314636230468,-6.788758807373046,7.273584643554687,1.8310546875,1.220703125,-1.03759765625
1781061930.6275787,0.824802471923828,-6.792350109863281,7.261613635253906,1.64794921875,1.28173828125,-1.15966796875
1781061930.6315787,0.7876923461914062,-6.763619689941406,7.247248425292969,1.64794921875,1.03759765625,-1.0986328125
1781061930.6355786,0.7876923461914062,-6.752845782470703,7.222109307861328,1.64794921875,0.6103515625,-1.15966796875
1781061930.6395786,0.8080430603027343,-6.691793640136718,7.247248425292969,1.46484375,0.30517578125,-1.03759765625
1781061930.6435618,0.7972691528320313,-6.675034228515624,7.218518005371093,1.220703125,0.1220703125,-1.0986328125
1781061930.6475618,0.7960720520019531,-6.635529901123046,7.229291912841797,1.15966796875,-0.244140625,-1.0986328125
1781061930.6515617,0.8224082702636718,-6.592434271240234,7.244854223632812,0.79345703125,-0.6103515625,-0.91552734375
1781061930.6555617,0.8056488586425781,-6.566098052978515,7.254431030273437,0.6103515625,-0.91552734375,-0.9765625
1781061930.6595616,0.814028564453125,-6.5601125488281244,7.274781744384765,0.0,-1.220703125,-1.220703125
1781061930.6635616,0.834379278564453,-6.5780690612792965,7.252036828613281,0.1220703125,-1.52587890625,-1.15966796875
1781061930.6675615,0.8116343627929687,-6.570886456298828,7.24605132446289,-0.3662109375,-1.708984375,-1.15966796875
1781061930.6715615,0.8307879760742187,-6.586448767089843,7.213729602050781,-0.3662109375,-1.8310546875,-1.03759765625
1781061930.6755614,0.843956085205078,-6.590040069580078,7.204152795410156,-0.732421875,-1.8310546875,-0.91552734375
1781061930.6795614,0.834379278564453,-6.573280657958984,7.199364392089843,-0.9765625,-2.197265625,-0.9765625
1781061930.6835613,0.843956085205078,-6.5948284729003905,7.199364392089843,-0.91552734375,-2.13623046875,-1.220703125
1781061930.6875613,0.8667010009765624,-6.606799481201172,7.18859048461914,-1.0986328125,-1.953125,-1.3427734375
1781061930.6915612,0.86191259765625,-6.616376287841796,7.174225274658203,-0.91552734375,-2.25830078125,-1.40380859375
1781061930.6955612,0.8667010009765624,-6.610390783691406,7.183802081298828,-1.0986328125,-2.50244140625,-1.46484375
1781061930.699561,0.8511386901855468,-6.612784985351562,7.20774409790039,-1.15966796875,-2.50244140625,-1.52587890625
1781061930.703561,0.8487444885253905,-6.5972226745605465,7.198167291259765,-1.3427734375,-2.38037109375,-1.220703125
1781061930.707561,0.8403647827148437,-6.587645867919922,7.183802081298828,-1.28173828125,-2.44140625,-1.46484375
1781061930.711561,0.8403647827148437,-6.599616876220702,7.186196282958984,-1.15966796875,-2.44140625,-1.64794921875
1781061930.715561,0.8511386901855468,-6.581660363769531,7.175422375488281,-1.40380859375,-2.50244140625,-1.5869140625
1781061930.7195609,0.8451531860351562,-6.5948284729003905,7.176619476318359,-1.3427734375,-2.25830078125,-2.01416015625
1781061930.7235608,0.853532891845703,-6.625953094482422,7.194575988769531,-1.52587890625,-2.25830078125,-2.01416015625
1781061930.7275608,0.8678981018066406,-6.639121203613281,7.241262921142578,-1.64794921875,-2.50244140625,-1.708984375
1781061930.7315125,0.8774749084472656,-6.621164691162109,7.267599139404297,-1.89208984375,-2.44140625,-1.953125
1781061930.7355125,0.8894459167480468,-6.653486413574218,7.262810736083984,-2.01416015625,-2.8076171875,-1.8310546875
1781061930.7395124,0.8714894042968749,-6.643909606933593,7.281964349365234,-2.01416015625,-3.0517578125,-2.01416015625
1781061930.7435124,0.8966285217285156,-6.659471917724609,7.278373046874999,-1.953125,-3.11279296875,-1.708984375
1781061930.7475123,0.8942343200683593,-6.6905965393066404,7.219715106201171,-1.89208984375,-3.11279296875,-2.01416015625
1781061930.7515123,0.9253589416503906,-6.701370446777343,7.211335400390625,-1.77001953125,-2.86865234375,-2.01416015625
1781061930.7555122,0.8978256225585937,-6.695384942626953,7.193378887939453,-1.46484375,-2.99072265625,-1.953125
1781061930.7595122,0.8966285217285156,-6.715735656738281,7.183802081298828,-1.46484375,-2.74658203125,-2.0751953125
1781061930.7635121,0.9337386474609375,-6.707355950927734,7.182604980468749,-1.03759765625,-2.5634765625,-2.25830078125
1781061930.767512,0.9217676391601562,-6.692990740966796,7.162254266357421,-0.91552734375,-2.25830078125,-2.13623046875
1781061930.771512,0.9193734375,-6.715735656738281,7.162254266357421,-0.9765625,-2.0751953125,-2.38037109375
1781061930.775512,0.939724151611328,-6.692990740966796,7.182604980468749,-0.9765625,-1.89208984375,-2.3193359375
1781061930.779512,0.9241618408203125,-6.679822631835937,7.222109307861328,-1.03759765625,-1.89208984375,-2.62451171875
1781061930.7835119,0.9277531433105468,-6.682216833496093,7.217320904541015,-1.0986328125,-1.40380859375,-2.62451171875
1781061930.7875118,0.9361328491210937,-6.6510922119140625,7.24605132446289,-1.28173828125,-1.46484375,-2.5634765625
1781061930.7915118,0.9229647399902343,-6.637924102783202,7.250839727783203,-1.8310546875,-0.79345703125,-2.38037109375
1781061930.7955117,0.9229647399902343,-6.665457421875,7.262810736083984,-1.64794921875,-1.03759765625,-2.01416015625
1781061930.7995117,0.928950244140625,-6.6522893127441405,7.266402038574219,-2.197265625,-0.67138671875,-1.708984375
1781061930.8035116,0.9325415466308593,-6.664260321044922,7.269993341064453,-2.13623046875,-0.3662109375,-1.40380859375
1781061930.8075116,0.9313444458007812,-6.665457421875,7.271190441894531,-2.13623046875,-0.732421875,-1.03759765625
1781061930.8115115,0.9660603698730468,-6.696582043457031,7.277175946044921,-2.62451171875,-0.3662109375,-0.8544921875
1781061930.8155115,0.9349357482910156,-6.6714429260253905,7.26520493774414,-2.13623046875,-0.1220703125,-0.18310546875
1781061930.8195114,0.9469067565917968,-6.698976245117187,7.260416534423828,-2.13623046875,0.18310546875,0.30517578125
1781061930.8235114,0.9576806640625,-6.701370446777343,7.271190441894531,-2.13623046875,0.1220703125,0.54931640625
1781061930.8275113,0.9552864624023437,-6.726509564208984,7.279570147705078,-1.8310546875,0.244140625,0.9765625
1781061930.8315113,0.9648632690429687,-6.710947253417968,7.275978845214843,-1.64794921875,0.244140625,1.46484375
1781061930.8355112,0.968454571533203,-6.726509564208984,7.279570147705078,-1.15966796875,0.244140625,1.8310546875
1781061930.8395112,0.9756371765136718,-6.742071875,7.277175946044921,-0.91552734375,0.54931640625,2.01416015625
1781061930.843511,0.958877764892578,-6.743268975830078,7.273584643554687,-0.48828125,0.30517578125,2.50244140625
1781061930.847511,0.9660603698730468,-6.72291826171875,7.248445526123047,-0.18310546875,0.8544921875,2.50244140625
1781061930.851511,0.949300958251953,-6.70975015258789,7.237671618652343,0.244140625,1.15966796875,2.62451171875
1781061930.855511,0.9433154541015625,-6.685808135986328,7.238868719482421,0.1220703125,1.46484375,2.5634765625
1781061930.859511,0.9648632690429687,-6.742071875,7.252036828613281,0.54931640625,1.64794921875,2.50244140625
1781061930.8635108,0.9552864624023437,-6.707355950927734,7.249642626953125,0.732421875,1.953125,2.5634765625
1781061930.8675108,0.939724151611328,-6.691793640136718,7.219715106201171,0.8544921875,1.708984375,2.01416015625
1781061930.8715107,0.9325415466308593,-6.685808135986328,7.225700610351562,0.9765625,1.89208984375,2.0751953125
1781061930.8755107,0.9528922607421875,-6.654683514404296,7.234080316162109,0.54931640625,2.01416015625,1.8310546875
1781061930.8795106,0.9157821350097656,-6.612784985351562,7.235277416992187,0.79345703125,1.953125,1.46484375
1781061930.8835106,0.9205705383300781,-6.623558892822265,7.231686114501953,0.8544921875,1.89208984375,0.79345703125
1781061930.8875105,0.9109937316894531,-6.6271501953125,7.2532339294433585,0.54931640625,1.953125,0.6103515625
1781061930.8915105,0.9229647399902343,-6.612784985351562,7.258022332763671,0.3662109375,1.708984375,0.6103515625
1781061930.8955104,0.9002198242187499,-6.6331356994628905,7.243657122802734,0.30517578125,1.64794921875,0.0
1781061930.8995104,0.8990227233886718,-6.623558892822265,7.228094812011718,-0.06103515625,1.52587890625,-0.30517578125
1781061930.9035103,0.8978256225585937,-6.587645867919922,7.24605132446289,-0.48828125,1.40380859375,-0.8544921875
1781061930.9075103,0.8738836059570312,-6.604405279541015,7.231686114501953,-0.9765625,1.46484375,-1.15966796875
1781061930.9115102,0.8583212951660156,-6.584054565429687,7.241262921142578,-1.46484375,1.40380859375,-1.40380859375
1781061930.9155102,0.8607154968261719,-6.604405279541015,7.235277416992187,-1.77001953125,1.15966796875,-1.5869140625
1781061930.9195101,0.8547299926757812,-6.592434271240234,7.273584643554687,-1.953125,1.03759765625,-1.46484375
1781061930.9234374,0.8403647827148437,-6.566098052978515,7.293935357666015,-2.50244140625,0.67138671875,-1.5869140625
1781061930.9274373,0.8463502868652343,-6.585251666259765,7.307103466796875,-2.5634765625,0.42724609375,-1.46484375
1781061930.9314373,0.8798691101074219,-6.584054565429687,7.313088970947265,-2.38037109375,0.3662109375,-1.40380859375
1781061930.9354372,0.8810662109374999,-6.5960255737304685,7.299920861816406,-2.25830078125,0.0,-1.15966796875
1781061930.9394372,0.8702923034667969,-6.593631372070312,7.310694769287109,-2.197265625,-0.1220703125,-1.03759765625
1781061930.943437,0.8655039001464844,-6.6139820861816405,7.283161450195312,-1.77001953125,-0.6103515625,-0.48828125
1781061930.947426,0.9109937316894531,-6.618770489501952,7.277175946044921,-1.89208984375,-0.6103515625,0.0
1781061930.951426,0.8990227233886718,-6.599616876220702,7.260416534423828,-1.46484375,-1.03759765625,0.1220703125
1781061930.955426,0.9074024291992187,-6.609193682861328,7.243657122802734,-1.220703125,-0.9765625,0.30517578125
1781061930.959383,0.8954314208984374,-6.609193682861328,7.237671618652343,-1.0986328125,-0.9765625,0.79345703125
1781061930.963383,0.9050082275390624,-6.636727001953124,7.244854223632812,-0.9765625,-1.03759765625,0.91552734375
1781061930.967383,0.9217676391601562,-6.6331356994628905,7.223306408691406,-1.0986328125,-1.03759765625,1.03759765625
1781061930.9713829,0.9133879333496093,-6.636727001953124,7.225700610351562,-1.03759765625,-0.8544921875,1.28173828125
1781061930.9753828,0.9265560424804687,-6.629544396972656,7.232883215332031,-1.03759765625,-0.8544921875,1.28173828125
1781061930.9793828,0.9421183532714843,-6.637924102783202,7.266402038574219,-1.0986328125,-0.732421875,1.3427734375
1781061930.9833827,0.9313444458007812,-6.655880615234374,7.292738256835937,-1.28173828125,-0.6103515625,1.15966796875
1781061930.9873827,0.9552864624023437,-6.661866119384765,7.301117962646484,-1.40380859375,-0.3662109375,1.0986328125
1781061930.9913826,0.9433154541015625,-6.706158850097656,7.30351216430664,-1.708984375,-0.244140625,1.15966796875
1781061930.9953585,0.9696516723632812,-6.7085530517578125,7.307103466796875,-2.01416015625,0.06103515625,0.91552734375
1781061930.9993584,0.948103857421875,-6.716932757568359,7.301117962646484,-2.197265625,-0.1220703125,0.8544921875
1781061931.003316,0.9540893615722655,-6.7277066650390625,7.295132458496093,-2.197265625,0.1220703125,0.8544921875
1781061931.0073159,0.9265560424804687,-6.752845782470703,7.295132458496093,-2.0751953125,0.06103515625,0.732421875
1781061931.0113158,0.9313444458007812,-6.755239984130859,7.2903440551757805,-2.01416015625,0.3662109375,0.732421875
1781061931.0153158,0.9624690673828125,-6.76122548828125,7.283161450195312,-1.953125,0.79345703125,0.67138671875
1781061931.0193157,0.9624690673828125,-6.760028387451172,7.26520493774414,-1.708984375,0.67138671875,0.54931640625
1781061931.0233157,0.9708487731933593,-6.787561706542968,7.260416534423828,-1.64794921875,0.91552734375,0.48828125
1781061931.0273156,0.9708487731933593,-6.798335614013672,7.252036828613281,-1.46484375,1.15966796875,0.67138671875
1781061931.0313156,0.9732429748535155,-6.795941412353515,7.264007836914062,-1.220703125,1.03759765625,0.9765625
1781061931.0353155,0.9540893615722655,-6.787561706542968,7.243657122802734,-1.0986328125,1.52587890625,1.03759765625
1781061931.0392115,0.9409212524414062,-6.781576202392578,7.248445526123047,-0.67138671875,1.3427734375,1.3427734375
1781061931.0432034,0.9516951599121093,-6.798335614013672,7.249642626953125,-0.732421875,1.03759765625,1.5869140625
1781061931.0472033,0.93852705078125,-6.788758807373046,7.277175946044921,-0.6103515625,0.91552734375,1.89208984375
1781061931.0512033,0.9337386474609375,-6.793547210693359,7.277175946044921,-0.732421875,1.15966796875,2.01416015625
1781061931.0552032,0.9121908325195311,-6.811503723144531,7.26520493774414,-0.67138671875,0.67138671875,2.0751953125
1781061931.0592031,0.9109937316894531,-6.804321118164062,7.2723875427246085,-0.6103515625,0.732421875,2.25830078125
1781061931.063203,0.8978256225585937,-6.78636460571289,7.295132458496093,-0.6103515625,0.54931640625,2.50244140625
1781061931.067203,0.9002198242187499,-6.794744311523437,7.289146954345703,-0.54931640625,0.3662109375,2.50244140625
1781061931.071203,0.9121908325195311,-6.7803791015625,7.283161450195312,-0.6103515625,-0.1220703125,2.50244140625
1781061931.075203,0.9097966308593749,-6.770802294921874,7.281964349365234,-0.54931640625,-0.48828125,2.74658203125
1781061931.079203,0.8870517150878906,-6.76721099243164,7.279570147705078,-0.48828125,-1.03759765625,2.44140625
1781061931.0832028,0.9062053283691406,-6.749254479980468,7.269993341064453,-0.79345703125,-1.3427734375,2.50244140625
1781061931.0872028,0.9409212524414062,-6.750451580810546,7.234080316162109,-0.54931640625,-1.64794921875,2.5634765625
1781061931.0912027,0.9253589416503906,-6.756437084960937,7.267599139404297,-0.6103515625,-1.89208984375,2.38037109375
1781061931.0952027,0.949300958251953,-6.736086370849609,7.24605132446289,-0.67138671875,-2.44140625,2.197265625
1781061931.0992026,0.9612719665527343,-6.737283471679687,7.259219433593749,-0.54931640625,-2.44140625,2.0751953125
1781061931.1032026,0.968454571533203,-6.734889270019531,7.214926702880859,-0.48828125,-2.8076171875,1.5869140625
1781061931.1072025,0.968454571533203,-6.731297967529296,7.240065820312499,-0.244140625,-3.0517578125,1.3427734375
1781061931.1112025,0.9720458740234375,-6.724115362548828,7.225700610351562,-0.54931640625,-3.5400390625,0.8544921875
1781061931.1152024,1.005564697265625,-6.740874774169922,7.212532501220703,-0.48828125,-3.72314453125,0.6103515625
1781061931.1192024,0.9888052856445312,-6.752845782470703,7.193378887939453,-0.42724609375,-3.72314453125,0.18310546875
1781061931.1232023,0.9983820922851562,-6.743268975830078,7.16943687133789,-0.42724609375,-3.84521484375,-0.244140625
1781061931.1272023,1.0175357055664063,-6.740874774169922,7.149086157226562,-0.06103515625,-3.7841796875,-0.54931640625
1781061931.1312022,1.016338604736328,-6.713341455078124,7.15028325805664,-0.1220703125,-3.5400390625,-1.03759765625
1781061931.1352022,1.0342951171875,-6.701370446777343,7.134720947265625,0.06103515625,-3.60107421875,-1.220703125
1781061931.139202,1.045069024658203,-6.676231329345702,7.145494854736327,0.42724609375,-3.0517578125,-1.708984375
1781061931.143202,1.0402806213378906,-6.679822631835937,7.162254266357421,0.54931640625,-2.99072265625,-1.953125
1781061931.147202,1.0558429321289062,-6.630741497802734,7.173028173828125,0.244140625,-2.685546875,-2.01416015625
1781061931.151202,1.0690110412597655,-6.649895111083984,7.16943687133789,0.1220703125,-2.5634765625,-2.3193359375
1781061931.155202,1.0845733520507812,-6.6510922119140625,7.204152795410156,0.3662109375,-2.3193359375,-2.38037109375
1781061931.1592019,1.083376251220703,-6.692990740966796,7.211335400390625,-0.1220703125,-2.25830078125,-2.25830078125
1781061931.1632018,1.0761936462402344,-6.6714429260253905,7.189787585449218,-0.18310546875,-2.01416015625,-2.3193359375
1781061931.1672018,1.064222637939453,-6.653486413574218,7.206546997070312,-0.18310546875,-1.77001953125,-2.5634765625
1781061931.1712017,1.0510545288085937,-6.664260321044922,7.223306408691406,-0.67138671875,-1.8310546875,-2.44140625
1781061931.1752017,1.0534487304687499,-6.692990740966796,7.212532501220703,-0.8544921875,-1.40380859375,-2.50244140625
1781061931.1792016,1.042674822998047,-6.734889270019531,7.214926702880859,-0.91552734375,-1.15966796875,-2.5634765625
1781061931.1832016,1.024718310546875,-6.716932757568359,7.244854223632812,-0.9765625,-1.0986328125,-2.50244140625
1781061931.1872015,1.0342951171875,-6.770802294921874,7.235277416992187,-0.67138671875,-0.67138671875,-2.62451171875
1781061931.1912014,1.0534487304687499,-6.7839704040527335,7.220912207031249,-0.8544921875,-0.79345703125,-2.62451171875
1781061931.1952014,1.0307038146972656,-6.776787799072265,7.212532501220703,-0.79345703125,-1.03759765625,-2.685546875
1781061931.1992013,1.061828436279297,-6.795941412353515,7.242460021972656,-0.42724609375,-0.9765625,-2.62451171875
1781061931.2032013,1.0474632263183594,-6.792350109863281,7.212532501220703,-0.06103515625,-0.9765625,-2.3193359375
1781061931.2072012,1.0307038146972656,-6.793547210693359,7.205349896240234,0.30517578125,-1.28173828125,-2.197265625
1781061931.2112012,1.0307038146972656,-6.752845782470703,7.1586629638671875,0.732421875,-1.15966796875,-2.197265625
1781061931.2152011,1.0594342346191405,-6.762422589111328,7.132326745605468,1.15966796875,-1.0986328125,-2.197265625
1781061931.219201,1.0785878479003905,-6.7277066650390625,7.125144140624999,1.708984375,-0.8544921875,-1.708984375
1781061931.223201,1.0570400329589844,-6.694187841796874,7.096413720703125,2.8076171875,-0.91552734375,-1.708984375
1781061931.227201,1.0761936462402344,-6.660669018554687,7.089231115722656,2.74658203125,-0.67138671875,-1.708984375
1781061931.2311893,1.0630255371093749,-6.623558892822265,7.076063006591797,3.0517578125,-0.3662109375,-1.8310546875
1781061931.2351892,1.064222637939453,-6.618770489501952,7.090428216552734,3.0517578125,0.0,-1.5869140625
1781061931.2391891,1.0977414611816405,-6.586448767089843,7.11197603149414,2.9296875,0.06103515625,-1.46484375
1781061931.2431567,1.061828436279297,-6.562506750488281,7.127538342285156,2.44140625,0.54931640625,-1.46484375
1781061931.2471566,1.0414777221679687,-6.555324145507812,7.1407064514160155,2.0751953125,0.42724609375,-1.3427734375
1781061931.2511566,1.0414777221679687,-6.555324145507812,7.1407064514160155,2.0751953125,0.42724609375,-1.3427734375
1781061931.2551565,1.0378864196777342,-6.530185028076171,7.146691955566406,1.40380859375,0.79345703125,-1.46484375
1781061931.2591565,1.0139444030761717,-6.527790826416015,7.1586629638671875,0.79345703125,0.9765625,-1.46484375
1781061931.2631564,0.9852139831542969,-6.53138212890625,7.167042669677734,0.732421875,0.91552734375,-1.52587890625
1781061931.2671564,0.9971849914550781,-6.528987927246093,7.141903552246093,-0.3662109375,1.5869140625,-1.5869140625
1781061931.2711563,1.0031704956054688,-6.586448767089843,7.175422375488281,-0.8544921875,1.5869140625,-1.3427734375
1781061931.2751563,0.97683427734375,-6.605602380371093,7.176619476318359,-1.15966796875,2.0751953125,-1.64794921875
1781061931.2791562,0.9696516723632812,-6.636727001953124,7.187393383789062,-1.77001953125,1.77001953125,-1.64794921875
1781061931.2831562,0.9864110839843749,-6.658274816894531,7.206546997070312,-1.953125,2.25830078125,-1.46484375
1781061931.2870576,0.9624690673828125,-6.685808135986328,7.168239770507812,-2.197265625,1.89208984375,-1.52587890625
1781061931.2910576,0.9457096557617187,-6.710947253417968,7.174225274658203,-1.953125,1.8310546875,-1.3427734375
1781061931.2950575,0.9732429748535155,-6.7803791015625,7.167042669677734,-2.13623046875,1.3427734375,-1.220703125
1781061931.2990472,0.9421183532714843,-6.788758807373046,7.187393383789062,-1.8310546875,1.220703125,-1.220703125
1781061931.3030276,0.93852705078125,-6.807912420654296,7.192181787109375,-1.5869140625,0.8544921875,-0.91552734375
1781061931.3070276,0.9540893615722655,-6.841431243896484,7.175422375488281,-1.220703125,0.91552734375,-0.732421875
1781061931.311002,0.9612719665527343,-6.842628344726562,7.159860064697265,-0.8544921875,0.54931640625,-0.79345703125
1781061931.315002,0.9265560424804687,-6.872555865478515,7.122749938964843,-0.42724609375,0.42724609375,-0.732421875
1781061931.319002,0.9445125549316405,-6.8569935546875,7.108384729003906,0.244140625,0.54931640625,-0.6103515625
1781061931.3230019,0.9409212524414062,-6.860584857177734,7.076063006591797,0.6103515625,0.6103515625,-0.67138671875
1781061931.3270018,0.9433154541015625,-6.84382544555664,7.049726788330077,1.28173828125,0.732421875,-0.6103515625
1781061931.3310018,0.9624690673828125,-6.84382544555664,7.056909393310547,1.8310546875,0.91552734375,-0.67138671875
1781061931.3350017,0.9696516723632812,-6.813897924804687,7.0281789733886715,2.25830078125,0.91552734375,-0.79345703125
1781061931.3390017,0.967257470703125,-6.812700823974609,7.038952880859375,2.44140625,0.91552734375,-0.732421875
1781061931.3430016,0.9935936889648437,-6.78636460571289,7.0269818725585935,2.50244140625,0.9765625,-0.8544921875
1781061931.3470016,0.967257470703125,-6.764816790771484,7.072471704101562,2.685546875,1.220703125,-1.220703125
1781061931.3510015,0.9469067565917968,-6.749254479980468,7.0844427124023435,2.74658203125,1.28173828125,-1.15966796875
1781061931.3550014,0.9445125549316405,-6.763619689941406,7.113173132324218,2.13623046875,1.0986328125,-1.46484375
1781061931.3590014,0.9241618408203125,-6.749254479980468,7.11197603149414,1.77001953125,1.28173828125,-1.5869140625
1781061931.3629901,0.9193734375,-6.7085530517578125,7.144297753906249,1.64794921875,1.46484375,-1.8310546875
1781061931.36699,0.9253589416503906,-6.736086370849609,7.149086157226562,0.9765625,1.5869140625,-1.708984375
1781061931.37099,0.9217676391601562,-6.74805737915039,7.144297753906249,0.79345703125,1.64794921875,-1.8310546875
1781061931.37499,0.9145850341796874,-6.758831286621094,7.16943687133789,0.42724609375,1.46484375,-1.5869140625
1781061931.37899,0.8966285217285156,-6.776787799072265,7.171831072998047,0.244140625,1.5869140625,-1.953125
1781061931.38299,0.9085995300292968,-6.771999395751953,7.198167291259765,0.0,1.5869140625,-2.0751953125
1781061931.3869898,0.9253589416503906,-6.7839704040527335,7.176619476318359,0.244140625,1.52587890625,-1.89208984375
1781061931.3909898,0.8942343200683593,-6.777984899902344,7.193378887939453,0.244140625,1.0986328125,-1.64794921875
1781061931.3949897,0.8822633117675781,-6.792350109863281,7.167042669677734,0.732421875,1.15966796875,-1.15966796875
1781061931.3989897,0.8930372192382812,-6.788758807373046,7.195773089599609,0.91552734375,1.03759765625,-1.28173828125
1781061931.4029896,0.8918401184082031,-6.818686328125,7.170633972167968,1.3427734375,0.6103515625,-0.91552734375
1781061931.4069896,0.8822633117675781,-6.801926916503906,7.164648468017577,1.77001953125,0.79345703125,-0.732421875
1781061931.4109895,0.8882488159179687,-6.792350109863281,7.119158636474609,2.25830078125,0.48828125,-0.54931640625
1781061931.4149895,0.8990227233886718,-6.751648681640624,7.132326745605468,2.74658203125,0.732421875,-0.30517578125
1781061931.4189894,0.8762778076171874,-6.746860278320312,7.082048510742187,2.99072265625,0.6103515625,-0.244140625
1781061931.4229894,0.8750807067871094,-6.695384942626953,7.095216619873047,3.35693359375,0.8544921875,0.0
1781061931.4269893,0.8930372192382812,-6.679822631835937,7.104793426513671,3.41796875,1.15966796875,0.06103515625
1781061931.4309893,0.9085995300292968,-6.665457421875,7.1023992248535155,3.173828125,1.40380859375,0.18310546875
1781061931.4349892,0.8954314208984374,-6.630741497802734,7.110778930664062,3.173828125,1.52587890625,0.0
1781061931.4389892,0.9109937316894531,-6.609193682861328,7.127538342285156,3.41796875,1.77001953125,0.1220703125
1781061931.442989,0.8990227233886718,-6.590040069580078,7.133523846435547,2.9296875,1.708984375,0.0
1781061931.446989,0.8870517150878906,-6.556521246337891,7.129932543945312,2.44140625,2.01416015625,-0.30517578125
1781061931.450989,0.8918401184082031,-6.568492254638672,7.1395093505859375,1.953125,2.197265625,-0.18310546875
1781061931.454989,0.8810662109374999,-6.551732843017578,7.144297753906249,1.5869140625,2.38037109375,-0.3662109375
1781061931.458989,0.8786720092773437,-6.585251666259765,7.135918048095703,1.28173828125,2.685546875,-0.6103515625
1781061931.4629889,0.8834604125976562,-6.548141540527343,7.147889056396484,0.732421875,2.9296875,-0.91552734375
1781061931.4669888,0.843956085205078,-6.554127044677734,7.134720947265625,0.6103515625,2.99072265625,-0.9765625
1781061931.4709888,0.8655039001464844,-6.546944439697265,7.144297753906249,0.1220703125,3.35693359375,-0.8544921875
1781061931.4749887,0.8738836059570312,-6.562506750488281,7.15028325805664,0.244140625,3.47900390625,-1.15966796875
1781061931.4789886,0.8607154968261719,-6.574477758789062,7.149086157226562,0.0,3.5400390625,-0.91552734375
1781061931.4829886,0.8355763793945312,-6.573280657958984,7.176619476318359,0.06103515625,3.23486328125,-1.03759765625
1781061931.4869885,0.8391676818847655,-6.568492254638672,7.180210778808593,-0.18310546875,3.60107421875,-1.03759765625
1781061931.4909885,0.8403647827148437,-6.579266162109374,7.213729602050781,-0.1220703125,3.0517578125,-0.91552734375
1781061931.4949884,0.8307879760742187,-6.567295153808593,7.210138299560547,-0.30517578125,3.23486328125,-0.91552734375
1781061931.4989884,0.8008604553222656,-6.5768719604492185,7.217320904541015,-0.42724609375,2.99072265625,-0.54931640625
1781061931.5029883,0.8295908752441405,-6.563703851318359,7.212532501220703,-0.48828125,3.0517578125,-0.244140625
1781061931.5069883,0.7960720520019531,-6.563703851318359,7.193378887939453,-0.6103515625,2.9296875,-0.244140625
1781061931.5109882,0.7912836486816406,-6.564900952148437,7.198167291259765,-0.48828125,2.86865234375,0.1220703125
1781061931.5149882,0.7817068420410156,-6.536170532226562,7.225700610351562,-0.79345703125,2.8076171875,0.6103515625
1781061931.5189881,0.7900865478515624,-6.551732843017578,7.232883215332031,-0.67138671875,2.50244140625,0.8544921875
1781061931.5229762,0.7864952453613281,-6.528987927246093,7.2532339294433585,-0.48828125,2.8076171875,1.03759765625
1781061931.526976,0.7924807495117187,-6.53138212890625,7.266402038574219,-0.732421875,2.44140625,1.28173828125
1781061931.5309737,0.7793126403808593,-6.526593725585937,7.271190441894531,-0.67138671875,2.13623046875,1.64794921875
1781061931.5349615,0.7625532287597656,-6.567295153808593,7.268796240234375,-0.732421875,1.89208984375,1.708984375
1781061931.5389614,0.7924807495117187,-6.593631372070312,7.269993341064453,-0.54931640625,1.5869140625,2.13623046875
1781061931.5429614,0.7960720520019531,-6.592434271240234,7.285555651855469,-0.54931640625,1.52587890625,2.50244140625
1781061931.5469613,0.8104372619628906,-6.605602380371093,7.277175946044921,-0.732421875,1.220703125,2.44140625
1781061931.5509613,0.7936778503417968,-6.647500909423828,7.2915411560058585,-0.91552734375,0.8544921875,2.25830078125
1781061931.5549612,0.7829039428710937,-6.677428430175781,7.283161450195312,-0.79345703125,0.8544921875,2.25830078125
1781061931.5589406,0.7613561279296874,-6.702567547607422,7.317877374267578,-0.8544921875,0.42724609375,1.89208984375
1781061931.5629287,0.7517793212890624,-6.700173345947265,7.3286512817382805,-0.8544921875,0.0,1.708984375
1781061931.5669286,0.7637503295898437,-6.7277066650390625,7.34181939086914,-0.79345703125,-0.48828125,1.52587890625
1781061931.5709286,0.7805097412109374,-6.733692169189453,7.368155609130859,-1.0986328125,-0.79345703125,1.28173828125
1781061931.5749285,0.7649474304199219,-6.760028387451172,7.369352709960937,-0.9765625,-1.0986328125,0.8544921875
1781061931.5788698,0.7876923461914062,-6.771999395751953,7.371746911621093,-1.03759765625,-1.40380859375,0.48828125
1781061931.5828278,0.7888894470214843,-6.80551821899414,7.38012661743164,-0.79345703125,-1.40380859375,0.30517578125
1781061931.5868278,0.8152256652832031,-6.828263134765624,7.364564306640625,-0.79345703125,-1.708984375,-0.06103515625
1781061931.5908277,0.8092401611328125,-6.845022546386718,7.362170104980469,-0.6103515625,-1.953125,-0.30517578125
1781061931.5948277,0.8451531860351562,-6.829460235595703,7.3478048950195305,-0.54931640625,-2.197265625,-0.79345703125
1781061931.5988276,0.842758984375,-6.849810949707031,7.344213592529297,0.0,-2.44140625,-0.8544921875
1781061931.6028275,0.852335791015625,-6.817489227294922,7.3466077941894525,0.1220703125,-2.3193359375,-0.8544921875
1781061931.6068275,0.8499415893554687,-6.807912420654296,7.364564306640625,0.30517578125,-2.50244140625,-1.28173828125
1781061931.6108274,0.9038111267089843,-6.806715319824218,7.3849150207519525,0.732421875,-2.62451171875,-1.03759765625
1781061931.6148274,0.9373299499511718,-6.775590698242187,7.375338214111328,0.91552734375,-2.74658203125,-1.3427734375
1781061931.6188273,0.9540893615722655,-6.7839704040527335,7.387309222412109,0.91552734375,-2.685546875,-1.0986328125
1781061931.6228273,0.9660603698730468,-6.74805737915039,7.353790399169921,0.9765625,-2.62451171875,-1.15966796875
1781061931.6268272,0.9612719665527343,-6.713341455078124,7.3669585083007805,1.220703125,-2.62451171875,-0.6103515625
1781061931.6308272,0.978031378173828,-6.715735656738281,7.364564306640625,1.03759765625,-2.685546875,-0.732421875
1781061931.6348271,1.0043675964355467,-6.751648681640624,7.3549875,1.220703125,-2.5634765625,-0.48828125
1781061931.638827,1.0019733947753906,-6.72890376586914,7.3669585083007805,1.40380859375,-2.44140625,-0.3662109375
1781061931.642827,1.024718310546875,-6.726509564208984,7.370549810791015,1.220703125,-2.0751953125,0.0
1781061931.646827,1.0211270080566406,-6.744466076660156,7.371746911621093,1.15966796875,-2.01416015625,-0.30517578125
1781061931.650827,1.0402806213378906,-6.749254479980468,7.36097300415039,1.28173828125,-2.0751953125,-0.06103515625
1781061931.654809,1.0594342346191405,-6.737283471679687,7.352593298339843,1.0986328125,-1.89208984375,0.18310546875
1781061931.658809,1.0749965454101562,-6.742071875,7.326257080078125,1.28173828125,-1.708984375,0.3662109375
1781061931.662809,1.0570400329589844,-6.719326959228515,7.313088970947265,1.708984375,-1.5869140625,0.3662109375
1781061931.6668088,1.0498574279785156,-6.731297967529296,7.301117962646484,1.8310546875,-1.0986328125,0.48828125
1781061931.6708088,1.0845733520507812,-6.738480572509765,7.269993341064453,1.953125,-0.67138671875,0.54931640625
1781061931.6748087,1.0773907470703123,-6.724115362548828,7.278373046874999,2.3193359375,-0.42724609375,0.54931640625
1781061931.6788087,1.061828436279297,-6.749254479980468,7.271190441894531,2.3193359375,-0.06103515625,0.48828125
1781061931.6828086,1.0630255371093749,-6.707355950927734,7.255628131103515,2.8076171875,0.42724609375,0.30517578125
1781061931.6868086,1.0462661254882812,-6.714538555908203,7.229291912841797,3.23486328125,0.6103515625,0.48828125
1781061931.6908085,1.0474632263183594,-6.679822631835937,7.22689771118164,3.11279296875,0.54931640625,0.732421875
1781061931.6948085,1.035492218017578,-6.6510922119140625,7.242460021972656,3.47900390625,0.67138671875,0.8544921875
1781061931.6988084,1.0330980163574217,-6.5960255737304685,7.250839727783203,3.662109375,0.9765625,0.9765625
1781061931.7028084,1.0235212097167967,-6.611587884521484,7.266402038574219,3.5400390625,0.79345703125,1.03759765625
1781061931.7068083,0.9876081848144531,-6.562506750488281,7.277175946044921,3.60107421875,0.67138671875,1.0986328125
1781061931.7108083,0.9971849914550781,-6.5385647338867185,7.279570147705078,3.2958984375,0.91552734375,1.28173828125
1781061931.7148082,0.9852139831542969,-6.499060406494141,7.28435855102539,3.41796875,0.54931640625,1.3427734375
1781061931.7188082,0.9983820922851562,-6.519411120605469,7.292738256835937,3.11279296875,0.79345703125,1.52587890625
1781061931.7228081,0.9876081848144531,-6.494272003173828,7.283161450195312,2.9296875,0.3662109375,1.52587890625
1781061931.726808,0.97683427734375,-6.441599566650391,7.296329559326171,2.5634765625,0.42724609375,1.220703125
1781061931.730808,0.939724151611328,-6.471527087402343,7.293935357666015,1.953125,0.48828125,1.40380859375
1781061931.734808,0.9277531433105468,-6.482300994873047,7.310694769287109,1.708984375,0.42724609375,1.40380859375
1781061931.738808,0.9109937316894531,-6.526593725585937,7.302315063476562,1.220703125,0.3662109375,1.3427734375
1781061931.7428079,0.9193734375,-6.5577183471679685,7.340622290039062,0.732421875,0.30517578125,1.03759765625
1781061931.7468078,0.9002198242187499,-6.5768719604492185,7.356184600830078,0.48828125,-0.244140625,0.8544921875
1781061931.7508078,0.8966285217285156,-6.555324145507812,7.3669585083007805,0.18310546875,-0.48828125,0.732421875
1781061931.7548077,0.9038111267089843,-6.605602380371093,7.364564306640625,-0.1220703125,-0.6103515625,0.30517578125
1781061931.7588077,0.9169792358398436,-6.60799658203125,7.352593298339843,0.0,-0.54931640625,0.1220703125
1781061931.7628076,0.9121908325195311,-6.640318304443359,7.350199096679687,-0.30517578125,-0.732421875,-0.244140625
1781061931.7668076,0.8786720092773437,-6.636727001953124,7.308300567626953,-0.1220703125,-0.30517578125,-0.54931640625
1781061931.7708075,0.8607154968261719,-6.706158850097656,7.315483172607421,-0.06103515625,-0.67138671875,-0.79345703125
1781061931.7748075,0.8678981018066406,-6.701370446777343,7.285555651855469,-0.1220703125,-0.54931640625,-0.67138671875
1781061931.7788074,0.8774749084472656,-6.716932757568359,7.302315063476562,0.3662109375,-0.30517578125,-1.15966796875
1781061931.7828074,0.853532891845703,-6.725312463378906,7.316680273437499,0.67138671875,-0.3662109375,-1.15966796875
1781061931.7868073,0.8547299926757812,-6.683413934326172,7.319074475097656,0.91552734375,-0.42724609375,-1.28173828125
1781061931.7908072,0.8678981018066406,-6.676231329345702,7.340622290039062,1.28173828125,-0.79345703125,-1.3427734375
1781061931.7948072,0.8726865051269531,-6.6702458251953125,7.3478048950195305,1.5869140625,-0.9765625,-1.220703125
1781061931.7988071,0.8786720092773437,-6.688202337646484,7.351396197509765,1.8310546875,-1.220703125,-1.220703125
1781061931.802807,0.8834604125976562,-6.695384942626953,7.339425189208984,1.8310546875,-1.3427734375,-0.9765625
1781061931.806807,0.8906430175781249,-6.719326959228515,7.331045483398437,2.197265625,-1.708984375,-1.28173828125
1781061931.810807,0.8631096984863281,-6.710947253417968,7.321468676757812,2.25830078125,-1.77001953125,-0.91552734375
1781061931.814807,0.852335791015625,-6.7277066650390625,7.307103466796875,2.44140625,-1.708984375,-0.91552734375
1781061931.818807,0.8571241943359375,-6.714538555908203,7.301117962646484,2.62451171875,-1.89208984375,-0.732421875
1781061931.8228068,0.834379278564453,-6.72890376586914,7.30351216430664,2.62451171875,-2.25830078125,-0.48828125
1781061931.8268068,0.8499415893554687,-6.692990740966796,7.292738256835937,3.11279296875,-2.38037109375,-0.67138671875
1781061931.8308067,0.8822633117675781,-6.685808135986328,7.273584643554687,3.23486328125,-2.5634765625,-0.54931640625
1781061931.8348067,0.8786720092773437,-6.663063220214843,7.269993341064453,3.2958984375,-2.5634765625,-0.244140625
1781061931.8388066,0.8822633117675781,-6.636727001953124,7.283161450195312,3.41796875,-2.9296875,-0.1220703125
1781061931.8428066,0.8667010009765624,-6.598419775390624,7.302315063476562,3.47900390625,-3.0517578125,-0.06103515625
1781061931.8468065,0.8954314208984374,-6.603208178710937,7.316680273437499,3.173828125,-3.23486328125,0.1220703125
1781061931.8508065,0.9038111267089843,-6.56968935546875,7.320271575927734,2.8076171875,-3.41796875,0.18310546875
1781061931.8548064,0.9085995300292968,-6.5948284729003905,7.339425189208984,2.74658203125,-3.35693359375,0.244140625
1781061931.8588064,0.9097966308593749,-6.586448767089843,7.314286071777343,2.44140625,-3.662109375,0.30517578125
1781061931.862755,0.9516951599121093,-6.590040069580078,7.317877374267578,2.01416015625,-3.84521484375,0.3662109375
1781061931.866755,0.9277531433105468,-6.629544396972656,7.275978845214843,1.89208984375,-3.41796875,0.18310546875
1781061931.870755,0.9349357482910156,-6.628347296142578,7.267599139404297,1.40380859375,-3.35693359375,0.1220703125
1781061931.874755,0.939724151611328,-6.649895111083984,7.230489013671875,1.3427734375,-3.0517578125,0.1220703125
1781061931.8787549,0.9349357482910156,-6.622361791992187,7.229291912841797,1.28173828125,-2.50244140625,-0.244140625
1781061931.8827548,0.9528922607421875,-6.637924102783202,7.217320904541015,1.46484375,-2.13623046875,-0.18310546875
1781061931.8867548,0.949300958251953,-6.6271501953125,7.201758593749999,1.52587890625,-1.46484375,-0.3662109375
1781061931.8907547,0.9516951599121093,-6.6331356994628905,7.192181787109375,1.77001953125,-1.15966796875,-0.732421875
1781061931.8947546,0.9648632690429687,-6.618770489501952,7.183802081298828,1.8310546875,-0.732421875,-0.732421875
1781061931.8987546,0.9528922607421875,-6.5972226745605465,7.175422375488281,2.0751953125,-0.30517578125,-0.732421875
1781061931.9027545,0.9732429748535155,-6.604405279541015,7.167042669677734,2.13623046875,0.0,-0.9765625
1781061931.9067545,0.9564835632324218,-6.5768719604492185,7.168239770507812,2.3193359375,-0.18310546875,-0.91552734375
1781061931.9107544,0.9504980590820312,-6.572083557128906,7.149086157226562,2.25830078125,0.42724609375,-0.79345703125
1781061931.914722,0.9564835632324218,-6.556521246337891,7.137115148925781,2.0751953125,0.3662109375,-0.91552734375
1781061931.9186814,0.9337386474609375,-6.514622717285156,7.132326745605468,1.89208984375,0.79345703125,-0.9765625
1781061931.9226813,0.9097966308593749,-6.491877801513671,7.119158636474609,2.0751953125,0.8544921875,-0.67138671875
1781061931.9266813,0.9193734375,-6.489483599853515,7.117961535644531,1.8310546875,1.28173828125,-0.79345703125
1781061931.9306333,0.8978256225585937,-6.461950280761719,7.11197603149414,1.77001953125,1.46484375,-0.732421875
1781061931.9346333,0.8954314208984374,-6.472724188232421,7.129932543945312,1.28173828125,1.3427734375,-0.732421875
1781061931.9386332,0.8655039001464844,-6.441599566650391,7.156268762207031,0.91552734375,1.40380859375,-0.54931640625
1781061931.9426332,0.8750807067871094,-6.414066247558593,7.196970190429687,0.8544921875,1.52587890625,-0.30517578125
1781061931.946633,0.8690952026367187,-6.410474945068359,7.214926702880859,0.732421875,1.15966796875,-0.06103515625
1781061931.950633,0.853532891845703,-6.415263348388671,7.217320904541015,0.48828125,1.0986328125,0.06103515625
1781061931.954633,0.8571241943359375,-6.4356140625,7.225700610351562,0.42724609375,0.91552734375,0.06103515625
1781061931.958633,0.8667010009765624,-6.4463879699707025,7.220912207031249,0.1220703125,0.79345703125,0.67138671875
1781061931.9626253,0.8547299926757812,-6.436811163330078,7.217320904541015,0.18310546875,0.3662109375,0.54931640625
1781061931.966613,0.8319850769042968,-6.472724188232421,7.220912207031249,0.18310546875,0.06103515625,0.91552734375
1781061931.970613,0.8020575561523438,-6.470329986572265,7.232883215332031,0.06103515625,-0.18310546875,0.91552734375
1781061931.974613,0.8595183959960937,-6.497863305664062,7.212532501220703,0.1220703125,-0.42724609375,1.03759765625
1781061931.978613,0.8403647827148437,-6.5397618347167965,7.232883215332031,0.3662109375,-0.54931640625,1.0986328125
1781061931.9826128,0.834379278564453,-6.5218053222656245,7.225700610351562,0.30517578125,-1.03759765625,1.15966796875
1781061931.9866128,0.8367734802246093,-6.528987927246093,7.264007836914062,0.54931640625,-1.220703125,1.40380859375
1781061931.9906127,0.8475473876953125,-6.543353137207031,7.250839727783203,0.42724609375,-1.52587890625,1.40380859375
1781061931.9946127,0.8762778076171874,-6.56968935546875,7.256825231933593,0.54931640625,-1.64794921875,1.46484375
1781061931.9986126,0.8750807067871094,-6.618770489501952,7.268796240234375,0.732421875,-2.13623046875,1.46484375
1781061932.0026126,0.8738836059570312,-6.610390783691406,7.238868719482421,0.54931640625,-2.25830078125,1.28173828125
1781061932.0066125,0.86191259765625,-6.603208178710937,7.269993341064453,0.42724609375,-2.3193359375,1.15966796875
1781061932.0106125,0.8834604125976562,-6.635529901123046,7.2532339294433585,0.79345703125,-2.38037109375,1.15966796875
1781061932.0146124,0.9097966308593749,-6.643909606933593,7.2723875427246085,0.6103515625,-2.50244140625,1.0986328125
1781061932.0186124,0.8858546142578124,-6.6271501953125,7.28435855102539,0.732421875,-2.50244140625,0.91552734375
1781061932.0226123,0.9097966308593749,-6.628347296142578,7.279570147705078,0.48828125,-2.13623046875,0.48828125
1781061932.0266123,0.9085995300292968,-6.5972226745605465,7.287949853515625,0.3662109375,-2.3193359375,0.54931640625
1781061932.0306122,0.9109937316894531,-6.6151791870117185,7.323862878417969,0.48828125,-2.0751953125,0.42724609375
1781061932.0346122,0.9277531433105468,-6.605602380371093,7.333439685058593,0.30517578125,-2.197265625,0.3662109375
1781061932.0386121,0.9373299499511718,-6.5768719604492185,7.343016491699219,0.244140625,-2.50244140625,0.0
1781061932.042612,0.939724151611328,-6.572083557128906,7.3657614074707025,-0.06103515625,-2.5634765625,0.0
1781061932.046612,0.9457096557617187,-6.591237170410156,7.38012661743164,-0.1220703125,-2.3193359375,-0.1220703125
1781061932.050612,0.9337386474609375,-6.56968935546875,7.369352709960937,-0.3662109375,-2.50244140625,-0.244140625
1781061932.054612,0.9540893615722655,-6.585251666259765,7.381323718261719,-0.732421875,-2.44140625,-0.30517578125
1781061932.0586119,0.9516951599121093,-6.617573388671874,7.3837179199218745,-0.91552734375,-2.0751953125,-0.42724609375
1781061932.0626118,0.93852705078125,-6.618770489501952,7.3669585083007805,-1.03759765625,-2.38037109375,-0.6103515625
1781061932.0666118,0.968454571533203,-6.590040069580078,7.390900524902343,-1.15966796875,-1.89208984375,-1.03759765625
1781061932.0706117,0.978031378173828,-6.628347296142578,7.370549810791015,-1.3427734375,-1.89208984375,-0.91552734375
1781061932.0746117,0.9660603698730468,-6.6702458251953125,7.371746911621093,-1.220703125,-1.708984375,-0.9765625
1781061932.0786116,0.9876081848144531,-6.6893994384765625,7.382520819091797,-1.0986328125,-1.5869140625,-1.220703125
1781061932.0826116,0.9852139831542969,-6.678625531005859,7.362170104980469,-1.28173828125,-1.46484375,-1.220703125
1781061932.0866115,0.9792284790039062,-6.700173345947265,7.350199096679687,-1.40380859375,-1.28173828125,-1.40380859375
1781061932.0906115,1.0007762939453124,-6.702567547607422,7.339425189208984,-0.91552734375,-0.9765625,-1.40380859375
1781061932.0946114,0.9804255798339843,-6.6905965393066404,7.335833886718749,-0.9765625,-0.732421875,-1.46484375
1781061932.0986114,1.006761798095703,-6.725312463378906,7.310694769287109,-0.732421875,-0.244140625,-1.28173828125
1781061932.1026113,1.0199299072265624,-6.694187841796874,7.317877374267578,-0.3662109375,-0.1220703125,-1.03759765625
1781061932.1066113,1.005564697265625,-6.701370446777343,7.313088970947265,0.0,0.1220703125,-0.8544921875
1781061932.1106112,1.0402806213378906,-6.679822631835937,7.338228088378906,0.30517578125,0.18310546875,-0.79345703125
1781061932.1146111,1.0474632263183594,-6.676231329345702,7.337030987548828,0.244140625,0.42724609375,-0.42724609375
1781061932.118611,1.035492218017578,-6.6510922119140625,7.350199096679687,0.6103515625,0.18310546875,0.18310546875
1781061932.122611,1.0510545288085937,-6.621164691162109,7.357381701660156,0.54931640625,0.3662109375,0.54931640625
1781061932.126611,1.0438719238281249,-6.5972226745605465,7.3549875,0.732421875,0.244140625,0.91552734375
1781061932.130611,1.0390835205078124,-6.58884296875,7.3549875,0.67138671875,0.30517578125,0.8544921875
1781061932.134611,1.0283096130371092,-6.618770489501952,7.356184600830078,0.732421875,0.1220703125,1.3427734375
1781061932.1386108,1.0414777221679687,-6.592434271240234,7.37414111328125,0.6103515625,0.3662109375,1.28173828125
1781061932.1426108,1.0211270080566406,-6.593631372070312,7.363367205810547,0.67138671875,0.1220703125,1.708984375
1781061932.1466107,1.0606313354492187,-6.599616876220702,7.371746911621093,0.3662109375,0.18310546875,1.77001953125
1781061932.1506107,1.0534487304687499,-6.5601125488281244,7.359775903320312,0.244140625,0.06103515625,1.64794921875
1781061932.1546106,1.0378864196777342,-6.593631372070312,7.349001995849609,0.18310546875,0.42724609375,1.89208984375
1781061932.1586106,1.0498574279785156,-6.606799481201172,7.3549875,0.0,0.42724609375,2.01416015625
1781061932.1626105,1.042674822998047,-6.582857464599609,7.36097300415039,0.1220703125,0.42724609375,2.01416015625
1781061932.1666105,1.0630255371093749,-6.6151791870117185,7.3478048950195305,-0.42724609375,0.3662109375,1.46484375
1781061932.1706104,1.0474632263183594,-6.6271501953125,7.352593298339843,-0.18310546875,0.67138671875,1.46484375
1781061932.1746104,1.0235212097167967,-6.617573388671874,7.326257080078125,-0.1220703125,0.732421875,1.15966796875
1781061932.1786103,1.0570400329589844,-6.678625531005859,7.301117962646484,-0.18310546875,0.67138671875,0.9765625
1781061932.1826103,1.052251629638672,-6.678625531005859,7.301117962646484,0.0,0.732421875,0.9765625
1781061932.1866102,1.0295067138671874,-6.704961749267578,7.307103466796875,-0.1220703125,0.8544921875,0.6103515625
1781061932.1906102,1.0342951171875,-6.736086370849609,7.289146954345703,-0.06103515625,1.15966796875,0.244140625
1781061932.19461,1.035492218017578,-6.737283471679687,7.3094976684570305,0.54931640625,1.0986328125,0.244140625
1781061932.19861,1.0474632263183594,-6.749254479980468,7.259219433593749,0.732421875,1.220703125,0.18310546875
1781061932.20261,1.035492218017578,-6.687005236816406,7.277175946044921,1.0986328125,1.40380859375,-0.06103515625
1781061932.20661,1.0342951171875,-6.688202337646484,7.307103466796875,1.15966796875,1.40380859375,0.18310546875
1781061932.21061,0.9971849914550781,-6.6905965393066404,7.302315063476562,1.708984375,1.708984375,-0.48828125
1781061932.2146099,1.0211270080566406,-6.685808135986328,7.30351216430664,1.708984375,1.64794921875,-0.42724609375
1781061932.2186098,1.01514150390625,-6.658274816894531,7.313088970947265,2.13623046875,1.40380859375,-0.18310546875
1781061932.2226098,1.016338604736328,-6.622361791992187,7.308300567626953,2.13623046875,1.28173828125,-0.3662109375
1781061932.2266097,0.9959878906249999,-6.623558892822265,7.3094976684570305,2.197265625,1.220703125,-0.42724609375
1781061932.2306097,0.978031378173828,-6.582857464599609,7.313088970947265,2.3193359375,0.91552734375,-0.67138671875
1781061932.2346096,0.9744400756835937,-6.585251666259765,7.30351216430664,2.25830078125,0.91552734375,-1.03759765625
1781061932.2386096,0.9660603698730468,-6.528987927246093,7.3094976684570305,2.01416015625,0.67138671875,-1.15966796875
1781061932.2426095,0.9732429748535155,-6.532579229736328,7.323862878417969,1.5869140625,0.732421875,-1.15966796875
1781061932.2466094,0.97683427734375,-6.517016918945312,7.32266577758789,1.64794921875,0.54931640625,-1.28173828125
1781061932.2506094,0.9804255798339843,-6.5038488098144525,7.313088970947265,1.0986328125,0.42724609375,-1.52587890625
1781061932.2546093,0.9852139831542969,-6.505045910644531,7.320271575927734,0.91552734375,0.42724609375,-1.52587890625
1781061932.2586093,0.9935936889648437,-6.523002423095702,7.297526660156249,0.732421875,0.30517578125,-1.8310546875
1781061932.2626092,0.9947907897949219,-6.518214019775391,7.28435855102539,0.732421875,0.18310546875,-1.89208984375
1781061932.2666092,0.9947907897949219,-6.509834313964843,7.256825231933593,0.6103515625,0.0,-1.8310546875
1781061932.2706091,1.0091559997558592,-6.507440112304687,7.235277416992187,0.3662109375,0.18310546875,-2.13623046875
1781061932.274609,0.9995791931152344,-6.5038488098144525,7.213729602050781,0.42724609375,0.1220703125,-2.0751953125
1781061932.278609,0.9971849914550781,-6.482300994873047,7.212532501220703,0.244140625,0.30517578125,-1.89208984375
1781061932.282609,1.006761798095703,-6.469132885742187,7.217320904541015,0.42724609375,-0.1220703125,-1.953125
1781061932.286609,0.9888052856445312,-6.458358978271484,7.223306408691406,0.1220703125,0.244140625,-2.0751953125
1781061932.290609,1.0031704956054688,-6.438008264160156,7.236474517822265,0.06103515625,0.18310546875,-2.01416015625
1781061932.2946088,1.0199299072265624,-6.463147381591797,7.24605132446289,-0.18310546875,0.244140625,-1.77001953125
1781061932.2986088,1.0235212097167967,-6.441599566650391,7.274781744384765,-0.30517578125,0.0,-1.46484375
1781061932.3026087,1.0390835205078124,-6.457161877441406,7.275978845214843,-0.54931640625,-0.18310546875,-1.220703125
1781061932.3066087,1.0283096130371092,-6.4846951965332025,7.299920861816406,-0.67138671875,-0.30517578125,-0.8544921875
1781061932.3106086,1.0498574279785156,-6.4846951965332025,7.292738256835937,-1.28173828125,-0.244140625,-0.91552734375
1781061932.3146086,1.0175357055664063,-6.4846951965332025,7.314286071777343,-1.220703125,-0.18310546875,-0.67138671875
1781061932.3186085,1.016338604736328,-6.499060406494141,7.293935357666015,-1.5869140625,-0.18310546875,-0.6103515625
1781061932.3226085,1.0127473022460938,-6.53138212890625,7.292738256835937,-1.77001953125,0.3662109375,-0.42724609375
1781061932.3266084,1.0103531005859374,-6.534973431396484,7.297526660156249,-1.8310546875,0.6103515625,-0.30517578125
1781061932.3306084,1.0319009155273438,-6.562506750488281,7.310694769287109,-1.46484375,0.54931640625,-0.1220703125
1781061932.3346083,0.9995791931152344,-6.5948284729003905,7.323862878417969,-1.64794921875,1.03759765625,-0.06103515625
1781061932.3386083,1.025915411376953,-6.602011077880859,7.351396197509765,-1.52587890625,0.91552734375,-0.06103515625
1781061932.3426082,1.035492218017578,-6.616376287841796,7.343016491699219,-1.46484375,1.3427734375,0.0
1781061932.3466082,1.0211270080566406,-6.623558892822265,7.313088970947265,-1.220703125,1.46484375,0.06103515625
1781061932.350608,1.0139444030761717,-6.6319385986328125,7.3094976684570305,-1.3427734375,1.953125,-0.06103515625
1781061932.354608,1.0007762939453124,-6.6139820861816405,7.292738256835937,-0.8544921875,2.197265625,-0.18310546875
1781061932.358608,1.0115502014160156,-6.637924102783202,7.278373046874999,-0.54931640625,2.3193359375,-0.244140625
1781061932.362608,0.968454571533203,-6.6714429260253905,7.249642626953125,-0.30517578125,2.9296875,-0.3662109375
1781061932.366608,0.97683427734375,-6.655880615234374,7.2532339294433585,-0.06103515625,3.47900390625,-0.732421875
1781061932.3706079,0.9935936889648437,-6.612784985351562,7.279570147705078,0.06103515625,3.2958984375,-0.54931640625
1781061932.3746078,0.9792284790039062,-6.609193682861328,7.28435855102539,0.3662109375,3.662109375,-0.54931640625
1781061932.3786077,0.9576806640625,-6.548141540527343,7.292738256835937,0.48828125,3.662109375,-0.54931640625
1781061932.3826077,0.9600748657226562,-6.554127044677734,7.325059979248047,0.54931640625,3.47900390625,-0.48828125
1781061932.3866076,0.9504980590820312,-6.525396624755859,7.332242584228515,0.42724609375,3.35693359375,-0.1220703125
1781061932.3906076,0.9349357482910156,-6.495469104003906,7.329848382568359,0.1220703125,3.35693359375,-0.1220703125
1781061932.3946075,0.9217676391601562,-6.48589229736328,7.345410693359375,0.30517578125,3.0517578125,0.0
1781061932.3986075,0.9157821350097656,-6.463147381591797,7.335833886718749,0.1220703125,2.86865234375,0.18310546875
1781061932.4026074,0.8966285217285156,-6.4846951965332025,7.333439685058593,-0.1220703125,2.685546875,0.42724609375
1781061932.4066074,0.8810662109374999,-6.458358978271484,7.313088970947265,-0.30517578125,2.5634765625,0.54931640625
1781061932.4106073,0.8774749084472656,-6.4846951965332025,7.320271575927734,-0.42724609375,2.3193359375,0.54931640625
1781061932.4146073,0.8499415893554687,-6.455964776611328,7.3466077941894525,-0.48828125,1.8310546875,0.79345703125
1781061932.4186072,0.8655039001464844,-6.477512591552734,7.364564306640625,-0.30517578125,1.0986328125,1.03759765625
1781061932.4226072,0.8295908752441405,-6.5038488098144525,7.388506323242187,-0.18310546875,0.42724609375,1.0986328125
1781061932.4266071,0.842758984375,-6.481103894042969,7.350199096679687,-0.42724609375,-0.244140625,0.79345703125
1781061932.430607,0.8295908752441405,-6.517016918945312,7.371746911621093,-0.30517578125,-0.79345703125,0.6103515625
1781061932.434607,0.8283937744140625,-6.5385647338867185,7.352593298339843,-0.42724609375,-1.3427734375,0.48828125
1781061932.438607,0.8056488586425781,-6.564900952148437,7.350199096679687,-0.244140625,-1.708984375,0.1220703125
1781061932.442607,0.8056488586425781,-6.5601125488281244,7.338228088378906,-0.18310546875,-2.197265625,-0.06103515625
1781061932.4466069,0.8176198669433593,-6.549338641357421,7.371746911621093,-0.30517578125,-2.685546875,-0.3662109375
1781061932.4506068,0.8295908752441405,-6.5948284729003905,7.370549810791015,-0.06103515625,-3.173828125,-0.91552734375
1781061932.4546068,0.8631096984863281,-6.598419775390624,7.387309222412109,-0.54931640625,-3.90625,-1.46484375
1781061932.4586067,0.8762778076171874,-6.58884296875,7.375338214111328,-0.30517578125,-4.150390625,-1.64794921875
1781061932.4626067,0.8882488159179687,-6.618770489501952,7.392097625732421,-0.54931640625,-4.638671875,-2.0751953125
1781061932.4666066,0.9169792358398436,-6.617573388671874,7.388506323242187,-1.15966796875,-4.7607421875,-2.38037109375
1781061932.4706066,0.9038111267089843,-6.617573388671874,7.3837179199218745,-1.03759765625,-5.0048828125,-2.74658203125
1781061932.4746065,0.9409212524414062,-6.637924102783202,7.3861121215820305,-0.9765625,-4.8828125,-2.99072265625
1781061932.4786065,0.9181763366699218,-6.5960255737304685,7.376535314941406,-0.9765625,-5.4931640625,-3.35693359375
1781061932.4826064,0.967257470703125,-6.641515405273437,7.352593298339843,-1.28173828125,-5.18798828125,-3.35693359375
1781061932.4866064,0.9900023864746094,-6.669048724365234,7.333439685058593,-0.8544921875,-5.0048828125,-3.662109375
1781061932.4906063,0.9840168823242187,-6.657077716064452,7.317877374267578,-0.79345703125,-5.2490234375,-3.84521484375
1781061932.4946063,0.9959878906249999,-6.672640026855468,7.308300567626953,-0.30517578125,-4.8828125,-3.7841796875
1781061932.4986062,1.0187328063964842,-6.657077716064452,7.285555651855469,-0.18310546875,-5.06591796875,-3.72314453125
1781061932.5026062,0.9935936889648437,-6.641515405273437,7.298723760986328,0.18310546875,-4.8828125,-3.5400390625
1781061932.506606,1.0414777221679687,-6.6510922119140625,7.323862878417969,0.54931640625,-4.7607421875,-3.662109375
1781061932.510606,1.0187328063964842,-6.617573388671874,7.30351216430664,0.67138671875,-4.8828125,-3.47900390625
1781061932.514606,1.042674822998047,-6.6343328002929685,7.337030987548828,0.8544921875,-4.57763671875,-3.173828125
1781061932.518606,1.061828436279297,-6.587645867919922,7.314286071777343,1.15966796875,-4.5166015625,-3.173828125
