timestamp,acc_x,acc_y,acc_z,gyro_x,gyro_y,gyro_z
1781146452.0230284,0.008379705810546874,-0.11372457885742186,10.022128149414062,-0.48828125,-0.06103515625,0.1220703125
1781146452.0270283,0.055066638183593745,-0.16879121704101563,10.062829577636718,-0.48828125,-0.9765625,-0.244140625
1781146452.0309823,0.105344873046875,-0.22026655273437498,10.0748005859375,-0.6103515625,-1.77001953125,-0.54931640625
1781146452.0349822,0.15322890625,-0.18914193115234373,10.054449871826172,-0.30517578125,-2.50244140625,-0.79345703125
1781146452.0389822,0.20829554443359374,-0.16280571289062498,9.995791931152343,-0.3662109375,-2.44140625,-1.28173828125
1781146452.042982,0.24660277099609373,-0.14963760375976562,9.941922393798828,-0.244140625,-2.44140625,-1.46484375
1781146452.046982,0.25139117431640623,-0.09935936889648436,9.90122096557617,-0.30517578125,-2.197265625,-1.46484375
1781146452.050982,0.30406361083984373,-0.076614453125,9.888052856445311,-0.3662109375,-1.64794921875,-1.40380859375
1781146452.054982,0.3399766357421875,-0.034715924072265626,9.873687646484374,-0.67138671875,-0.9765625,-1.220703125
1781146452.058982,0.36152445068359373,-0.047884033203124995,9.843760125732421,-0.8544921875,-0.244140625,-0.6103515625
1781146452.0629818,0.373495458984375,-0.06584054565429687,9.860519537353515,-0.732421875,0.42724609375,-0.06103515625
1781146452.0669818,0.33518823242187495,-0.14484920043945312,9.883264453125,-0.48828125,0.79345703125,0.0
1781146452.0709817,0.30526071166992186,-0.18315642700195311,9.903615167236328,-0.18310546875,1.15966796875,0.1220703125
1781146452.0749817,0.24779987182617186,-0.2262520568847656,9.944316595458984,0.06103515625,1.40380859375,0.54931640625
1781146452.0789816,0.27892449340820313,-0.23582886352539062,9.97184991455078,0.3662109375,1.28173828125,0.244140625
1781146452.0829816,0.2825157958984375,-0.24301146850585936,9.97903251953125,0.67138671875,0.9765625,0.30517578125
1781146452.0869815,0.23582886352539062,-0.15442600708007811,10.001777435302733,0.732421875,0.42724609375,0.06103515625
1781146452.0909815,0.19512743530273435,-0.14604630126953125,9.996989031982421,0.732421875,0.54931640625,-0.06103515625
1781146452.0949814,0.1580173095703125,-0.1197100830078125,10.022128149414062,0.0,0.48828125,-0.54931640625
1781146452.0989814,0.14006079711914063,0.044292730712890624,9.988609326171874,0.3662109375,0.91552734375,-0.6103515625
1781146452.1029813,0.11731588134765625,0.009576806640625,9.90122096557617,-0.54931640625,-0.732421875,-0.48828125
1781146452.1069813,0.14963760375976562,-0.023942016601562498,10.018536846923828,-0.732421875,-0.91552734375,-0.91552734375
1781146452.1109812,0.16759411621093748,-0.011971008300781249,10.02332525024414,-1.220703125,-1.28173828125,-0.6103515625
1781146452.1149812,0.20829554443359374,-0.11611878051757812,10.025719451904296,-1.46484375,-1.15966796875,-0.42724609375
1781146452.1189811,0.23104046020507812,-0.19393033447265623,9.955090502929687,-0.91552734375,-1.64794921875,-0.67138671875
1781146452.122981,0.229843359375,-0.21188684692382811,9.9215716796875,-0.3662109375,-1.708984375,-0.67138671875
1781146452.1269803,0.2346317626953125,-0.28969840087890625,9.926360083007811,0.3662109375,-1.46484375,-0.54931640625
1781146452.1309803,0.23343466186523437,-0.258573779296875,9.87608184814453,0.54931640625,-0.732421875,-0.732421875
1781146452.1349802,0.3280056274414062,-0.14484920043945312,9.904812268066406,0.732421875,-0.18310546875,-0.67138671875
1781146452.1389802,0.38786066894531246,-0.03591302490234375,9.91558617553711,0.79345703125,0.1220703125,-0.244140625
1781146452.14298,0.39743747558593745,0.015562310791015624,9.859322436523437,0.30517578125,0.30517578125,0.0
1781146452.14698,0.3591302490234375,-0.005985504150390624,9.889249957275391,-0.06103515625,1.0986328125,0.1220703125
1781146452.15098,0.26695348510742184,-0.0047884033203125,9.923965881347655,-0.1220703125,1.64794921875,0.6103515625
1781146452.15498,0.22385785522460935,-0.0143652099609375,9.90241806640625,-0.48828125,1.8310546875,0.48828125
1781146452.15898,0.1879448303222656,-0.05985504150390625,9.90122096557617,-0.54931640625,2.197265625,0.3662109375
1781146452.1629798,0.15203180541992187,-0.11372457885742186,9.958681805419921,-0.48828125,1.8310546875,0.1220703125
1781146452.1669798,0.12808978881835936,-0.19871873779296872,10.049661468505859,-0.30517578125,1.03759765625,-0.1220703125
1781146452.1709797,0.1484405029296875,-0.23223756103515625,10.078391888427733,-0.244140625,0.30517578125,0.0
1781146452.1749797,0.11731588134765625,-0.229843359375,10.091559997558592,-0.1220703125,-0.79345703125,-0.244140625
1781146452.1789594,0.08858546142578125,-0.1975216369628906,10.06163247680664,0.244140625,-1.28173828125,-0.48828125
1781146452.1829593,0.10654197387695312,-0.14245499877929688,10.014945544433592,0.54931640625,-2.01416015625,-0.79345703125
1781146452.1869593,0.10414777221679687,-0.11372457885742186,9.973047015380859,0.30517578125,-1.8310546875,-0.79345703125
1781146452.1909592,0.15442600708007811,-0.062249243164062495,9.963470208740233,0.06103515625,-1.953125,-0.67138671875
1781146452.1949592,0.258573779296875,-0.005985504150390624,9.93952819213867,-0.1220703125,-1.40380859375,-0.79345703125
1781146452.198959,0.30047230834960936,0.001197100830078125,9.91438907470703,-0.6103515625,-1.3427734375,-0.67138671875
1781146452.2029488,0.34715924072265625,-0.034715924072265626,9.90122096557617,-0.79345703125,-0.8544921875,-0.06103515625
1781146452.2069488,0.32561142578124996,-0.06703764648437499,9.885658654785155,-0.79345703125,-0.3662109375,-0.06103515625
1781146452.2108781,0.3028665100097656,-0.14484920043945312,9.892841259765625,-0.54931640625,0.1220703125,-0.06103515625
1781146452.214878,0.3016694091796875,-0.16280571289062498,9.904812268066406,-0.48828125,0.79345703125,-0.06103515625
1781146452.218878,0.3184288208007812,-0.19512743530273435,9.92755718383789,-0.1220703125,0.8544921875,0.244140625
1781146452.222878,0.34117373657226563,-0.2214636535644531,9.937133990478515,0.54931640625,1.0986328125,0.3662109375
1781146452.226878,0.34835634155273437,-0.2346317626953125,9.975441217041014,0.48828125,0.732421875,0.244140625
1781146452.2308779,0.38187516479492184,-0.2454056701660156,9.96586441040039,0.732421875,0.67138671875,0.6103515625
1781146452.2348778,0.39863457641601563,-0.2059013427734375,9.963470208740233,0.6103515625,0.48828125,0.48828125
1781146452.2388778,0.3124433166503906,-0.1592144104003906,9.94072529296875,0.67138671875,0.30517578125,0.18310546875
1781146452.2428777,0.143652099609375,-0.1005564697265625,9.890447058105469,0.67138671875,1.28173828125,-0.30517578125
1781146452.2468777,0.05985504150390625,-0.058657940673828124,9.849745629882811,0.91552734375,1.5869140625,-0.6103515625
1781146452.2508776,0.06823474731445311,0.06105214233398437,9.906009368896484,0.42724609375,1.89208984375,-0.54931640625
1781146452.2548776,0.16998831787109375,0.12449848632812499,10.018536846923828,-0.06103515625,1.46484375,-0.244140625
1781146452.2588775,0.21428104858398436,0.07422025146484375,10.06881508178711,-0.48828125,0.732421875,0.244140625
1781146452.2628775,0.1879448303222656,-0.001197100830078125,10.103531005859374,-1.15966796875,0.0,0.79345703125
1781146452.2668774,0.10414777221679687,-0.09935936889648436,10.073603485107421,-1.15966796875,-1.03759765625,0.67138671875
1781146452.2708774,0.06584054565429687,-0.18914193115234373,10.000580334472655,-0.732421875,-1.15966796875,0.42724609375
1781146452.2748773,0.016759411621093748,-0.23822306518554687,9.943119494628906,-0.06103515625,-1.28173828125,-0.06103515625
1781146452.2788773,0.13646949462890623,-0.2753331909179687,9.96586441040039,0.67138671875,-1.3427734375,-0.8544921875
1781146452.2828772,0.24779987182617186,-0.23702596435546874,9.995791931152343,0.732421875,-1.5869140625,-0.91552734375
1781146452.2868772,0.3591302490234375,-0.15562310791015624,10.001777435302733,0.54931640625,-1.708984375,-0.8544921875
1781146452.290877,0.4513070129394531,-0.09217676391601562,9.947907897949218,0.06103515625,-1.46484375,-0.9765625
1781146452.294877,0.4070142822265625,0.0047884033203125,9.880870251464843,-0.244140625,-1.220703125,-0.54931640625
1781146452.298877,0.3076549133300781,0.013168109130859374,9.83897172241211,-0.18310546875,-0.3662109375,-0.48828125
1781146452.302877,0.2765302917480469,-0.05027823486328125,9.809044201660155,-0.54931640625,0.54931640625,-0.3662109375
1781146452.306877,0.24061726684570311,-0.0383072265625,9.840168823242188,-0.42724609375,1.46484375,-0.30517578125
1781146452.3108768,0.2657563842773437,-0.1005564697265625,9.91558617553711,-0.18310546875,1.89208984375,0.0
1781146452.3148768,0.30885201416015623,-0.13407529296874998,9.97783541870117,-0.06103515625,1.953125,0.42724609375
1781146452.3188767,0.3184288208007812,-0.17477672119140625,10.03050785522461,-0.06103515625,1.3427734375,0.91552734375
1781146452.3228767,0.2609679809570312,-0.21428104858398436,10.043675964355469,0.244140625,1.03759765625,1.15966796875
1781146452.3268766,0.15682020874023436,-0.2549824768066406,10.00417163696289,0.42724609375,0.732421875,0.79345703125
1781146452.3308766,0.1352723937988281,-0.24660277099609373,9.958681805419921,0.8544921875,0.67138671875,0.3662109375
1781146452.3348765,0.1292868896484375,-0.17597382202148437,9.929951385498047,1.0986328125,0.06103515625,0.18310546875
1781146452.3388765,0.14724340209960937,-0.08140285644531249,9.956287603759765,1.0986328125,0.1220703125,-0.18310546875
1781146452.3428764,0.21787235107421873,-0.00239420166015625,10.005368737792969,0.48828125,-0.06103515625,-0.3662109375
1781146452.3468764,0.2549824768066406,0.015562310791015624,10.007762939453125,-0.18310546875,-0.54931640625,-0.48828125
1781146452.3508763,0.2442085693359375,0.028730419921875,10.000580334472655,-0.79345703125,-0.67138671875,-0.48828125
1781146452.3548763,0.19632453613281248,0.003591302490234375,9.970652813720703,-1.220703125,-0.67138671875,-0.48828125
1781146452.3588762,0.15322890625,-0.037110125732421874,9.92755718383789,-1.40380859375,-0.6103515625,-0.6103515625
1781146452.3628762,0.14245499877929688,-0.12090718383789062,9.928754284667969,-1.220703125,-0.54931640625,-0.54931640625
1781146452.3668761,0.2059013427734375,-0.22026655273437498,9.945513696289062,-0.6103515625,-0.30517578125,-0.732421875
1781146452.370876,0.2765302917480469,-0.229843359375,9.983820922851562,-0.244140625,-0.3662109375,-0.42724609375
1781146452.374876,0.3268085266113281,-0.22744915771484372,9.991003527832031,0.18310546875,-0.3662109375,-0.48828125
1781146452.378876,0.3399766357421875,-0.21787235107421873,9.973047015380859,0.48828125,-0.54931640625,0.18310546875
1781146452.382876,0.31004911499023435,-0.1879448303222656,9.934739788818359,0.67138671875,-0.48828125,0.42724609375
1781146452.3868759,0.26695348510742184,-0.13766659545898435,9.89523546142578,0.8544921875,-0.1220703125,0.54931640625
1781146452.3908758,0.23582886352539062,-0.044292730712890624,9.87727894897461,0.732421875,0.6103515625,0.30517578125
1781146452.3948758,0.2813186950683594,-0.0047884033203125,9.886855755615233,0.67138671875,1.15966796875,0.18310546875
1781146452.3988757,0.3220201232910156,0.037110125732421874,9.922768780517577,0.06103515625,1.40380859375,0.18310546875
1781146452.4028757,0.2753331909179687,0.0143652099609375,9.952696301269532,-0.244140625,1.28173828125,0.1220703125
1781146452.4068756,0.25258827514648435,-0.055066638183593745,9.969455712890625,-0.8544921875,1.46484375,0.18310546875
1781146452.4108756,0.19393033447265623,-0.08379705810546874,10.00417163696289,-0.732421875,1.03759765625,0.1220703125
1781146452.4148755,0.1197100830078125,-0.14724340209960937,10.020931048583984,-0.6103515625,0.732421875,-0.1220703125
1781146452.4188755,0.058657940673828124,-0.18914193115234373,10.026916552734374,-0.18310546875,0.30517578125,-0.18310546875
1781146452.4228754,0.09935936889648436,-0.21188684692382811,10.026916552734374,0.18310546875,0.0,-0.42724609375
1781146452.4268754,0.1292868896484375,-0.19991583862304688,10.036493359375,0.42724609375,-0.732421875,-0.48828125
1781146452.4308753,0.20470424194335937,-0.13168109130859373,10.04247886352539,0.48828125,-1.40380859375,-0.3662109375
1781146452.4348752,0.21068974609375,-0.06943184814453125,9.994594830322265,0.244140625,-1.52587890625,-0.42724609375
1781146452.4388752,0.24779987182617186,-0.033518823242187495,9.956287603759765,0.18310546875,-1.52587890625,-0.244140625
1781146452.4428751,0.25258827514648435,0.013168109130859374,9.926360083007811,-0.18310546875,-1.708984375,-0.06103515625
1781146452.446875,0.24660277099609373,0.009576806640625,9.885658654785155,-0.3662109375,-0.8544921875,-0.18310546875
1781146452.450875,0.3184288208007812,-0.0430956298828125,9.85692823486328,-0.732421875,-0.3662109375,-0.30517578125
1781146452.454875,0.3447650390625,-0.051475335693359374,9.888052856445311,-0.79345703125,0.244140625,-0.30517578125
1781146452.458875,0.36272155151367186,-0.09457096557617187,9.90840357055664,-0.48828125,0.30517578125,-0.06103515625
1781146452.462875,0.3280056274414062,-0.1640028137207031,9.941922393798828,-0.54931640625,0.67138671875,-0.244140625
1781146452.4668748,0.30047230834960936,-0.20709844360351562,9.981426721191406,-0.3662109375,0.67138671875,-0.18310546875
1781146452.4708748,0.23702596435546874,-0.22266075439453123,9.967061511230469,0.244140625,0.91552734375,-0.06103515625
1781146452.4748747,0.20829554443359374,-0.19393033447265623,9.957484704589843,0.732421875,0.91552734375,-0.1220703125
1781146452.4788747,0.1771709228515625,-0.15322890625,9.963470208740233,0.6103515625,0.9765625,0.06103515625
1781146452.4828746,0.18076222534179687,-0.105344873046875,9.974244116210937,0.732421875,0.9765625,0.06103515625
1781146452.4868746,0.18555062866210936,-0.058657940673828124,9.986215124511718,0.67138671875,0.30517578125,0.18310546875
1781146452.4908745,0.181959326171875,-0.013168109130859374,9.986215124511718,0.48828125,0.30517578125,0.54931640625
1781146452.4948745,0.19632453613281248,-0.013168109130859374,9.995791931152343,0.1220703125,0.244140625,0.244140625
1781146452.4988744,0.16280571289062498,-0.011971008300781249,9.9981861328125,-0.6103515625,-0.1220703125,0.1220703125
1781146452.5028744,0.16639701538085935,-0.0909796630859375,9.956287603759765,-0.54931640625,-0.18310546875,-0.06103515625
1781146452.5068743,0.16879121704101563,-0.09816226806640624,9.963470208740233,-0.8544921875,-0.3662109375,-0.30517578125
1781146452.5108743,0.19033903198242186,-0.15442600708007811,9.980229620361328,-0.79345703125,-0.48828125,-0.8544921875
1781146452.5148742,0.22744915771484372,-0.18555062866210936,9.982623822021484,-0.3662109375,-0.54931640625,-1.0986328125
1781146452.5188742,0.26336218261718747,-0.21068974609375,9.982623822021484,-0.18310546875,-0.9765625,-0.79345703125
1781146452.522874,0.24301146850585936,-0.19512743530273435,9.968258612060547,-0.30517578125,-1.220703125,-0.8544921875
1781146452.526874,0.25139117431640623,-0.1867477294921875,9.944316595458984,0.30517578125,-0.9765625,-0.91552734375
1781146452.530874,0.24181436767578124,-0.1484405029296875,9.91558617553711,0.30517578125,-0.67138671875,-0.67138671875
1781146452.534874,0.24660277099609373,-0.07900865478515624,9.916783276367187,0.3662109375,-0.30517578125,-0.1220703125
1781146452.538874,0.25737667846679685,-0.0430956298828125,9.91558617553711,0.1220703125,0.06103515625,0.244140625
1781146452.5428739,0.277727392578125,-0.025139117431640625,9.91558617553711,0.1220703125,0.42724609375,0.244140625
1781146452.5468738,0.29568390502929687,-0.02633621826171875,9.90840357055664,0.1220703125,0.6103515625,0.732421875
1781146452.5508738,0.2657563842773437,-0.08259995727539061,9.934739788818359,-0.244140625,0.6103515625,0.54931640625
1781146452.5548737,0.28371289672851563,-0.12090718383789062,9.920374578857421,-0.244140625,1.0986328125,0.67138671875
1781146452.5588737,0.2537853759765625,-0.16879121704101563,9.955090502929687,0.0,1.40380859375,0.42724609375
1781146452.5628736,0.20350714111328125,-0.16759411621093748,9.987412225341796,0.18310546875,1.0986328125,0.06103515625
1781146452.5668736,0.19393033447265623,-0.19991583862304688,9.995791931152343,0.06103515625,0.732421875,-0.3662109375
1781146452.5708735,0.1879448303222656,-0.17597382202148437,10.008960040283203,0.48828125,0.42724609375,-0.3662109375
1781146452.5748734,0.1879448303222656,-0.12689268798828124,10.002974536132811,0.42724609375,0.0,-0.54931640625
1781146452.5788734,0.1484405029296875,-0.08499415893554688,10.000580334472655,0.06103515625,-0.18310546875,-0.48828125
1781146452.5828733,0.14125789794921875,-0.023942016601562498,10.001777435302733,0.18310546875,-0.3662109375,-0.48828125
1781146452.5868733,0.13766659545898435,-0.022744915771484374,9.975441217041014,-0.06103515625,-0.6103515625,-0.18310546875
1781146452.5908732,0.17477672119140625,-0.020350714111328123,9.955090502929687,-0.18310546875,-0.67138671875,-0.18310546875
1781146452.5948732,0.19393033447265623,-0.015562310791015624,9.964667309570311,-0.18310546875,-0.8544921875,-0.06103515625
1781146452.5988731,0.2346317626953125,-0.05985504150390625,9.958681805419921,-0.42724609375,-0.6103515625,0.06103515625
1781146452.602873,0.2693476867675781,-0.11731588134765625,9.96586441040039,-0.42724609375,-0.6103515625,0.1220703125
1781146452.606873,0.2597708801269531,-0.1304839904785156,9.941922393798828,-0.6103515625,-0.6103515625,-0.30517578125
1781146452.610873,0.2765302917480469,-0.20829554443359374,9.938331091308592,-0.1220703125,-0.244140625,-0.18310546875
1781146452.614873,0.28730419921875,-0.2059013427734375,9.919177478027343,-0.06103515625,0.0,-0.18310546875
1781146452.618873,0.2825157958984375,-0.18315642700195311,9.934739788818359,0.1220703125,0.0,-0.1220703125
1781146452.6228728,0.2861070983886719,-0.14245499877929688,9.937133990478515,0.30517578125,0.244140625,-0.54931640625
1781146452.6268728,0.3028665100097656,-0.13646949462890623,9.951499200439452,0.6103515625,0.42724609375,-0.3662109375
1781146452.6308727,0.26815058593749996,-0.09217676391601562,9.952696301269532,0.18310546875,0.48828125,-0.30517578125
1781146452.6348727,0.24061726684570311,-0.051475335693359374,9.944316595458984,0.0,0.54931640625,0.0
1781146452.6388726,0.19632453613281248,-0.04189852905273437,9.944316595458984,0.0,0.54931640625,0.06103515625
1781146452.6428726,0.19512743530273435,-0.058657940673828124,9.944316595458984,0.244140625,0.54931640625,0.3662109375
1781146452.6468725,0.19991583862304688,-0.05985504150390625,9.951499200439452,-0.30517578125,0.48828125,0.30517578125
1781146452.6508725,0.201112939453125,-0.09696516723632811,9.963470208740233,-0.244140625,0.3662109375,0.30517578125
1781146452.6548724,0.21428104858398436,-0.12449848632812499,9.963470208740233,-0.06103515625,0.3662109375,0.30517578125
1781146452.6588724,0.22385785522460935,-0.15083470458984374,9.983820922851562,-0.30517578125,-0.244140625,-0.06103515625
1781146452.6628723,0.20709844360351562,-0.15562310791015624,9.97783541870117,-0.1220703125,-0.42724609375,0.06103515625
1781146452.6668723,0.23822306518554687,-0.17357962036132812,9.97903251953125,0.18310546875,-0.42724609375,-0.244140625
1781146452.6708722,0.2154781494140625,-0.14125789794921875,9.97184991455078,0.244140625,-0.54931640625,-0.67138671875
1781146452.6748722,0.22026655273437498,-0.1388636962890625,9.976638317871092,0.0,-0.67138671875,-0.67138671875
1781146452.678872,0.24660277099609373,-0.08858546142578125,9.962273107910155,0.0,-0.732421875,-0.48828125
1781146452.682872,0.26336218261718747,-0.0718260498046875,9.923965881347655,-0.1220703125,-0.3662109375,-0.54931640625
1781146452.686872,0.258573779296875,-0.033518823242187495,9.934739788818359,-0.30517578125,-0.18310546875,-0.18310546875
1781146452.690872,0.25737667846679685,-0.05386953735351562,9.93952819213867,-0.244140625,-0.1220703125,-0.06103515625
1781146452.694872,0.23223756103515625,-0.07900865478515624,9.922768780517577,-0.3662109375,0.244140625,0.06103515625
1781146452.6988719,0.23822306518554687,-0.0909796630859375,9.926360083007811,0.06103515625,0.244140625,0.244140625
1781146452.7028718,0.24181436767578124,-0.11372457885742186,9.937133990478515,0.0,0.42724609375,0.06103515625
1781146452.7068717,0.2657563842773437,-0.12330138549804687,9.949104998779296,-0.06103515625,0.54931640625,0.1220703125
1781146452.7108717,0.25139117431640623,-0.1484405029296875,9.976638317871092,0.18310546875,0.3662109375,0.30517578125
1781146452.7148716,0.27293898925781246,-0.16639701538085935,9.973047015380859,0.244140625,0.42724609375,0.0
1781146452.7188716,0.2537853759765625,-0.143652099609375,9.968258612060547,0.0,0.48828125,-0.30517578125
1781146452.7228715,0.2609679809570312,-0.12330138549804687,9.991003527832031,0.1220703125,0.244140625,0.0
1781146452.7268715,0.1640028137207031,-0.09576806640624999,9.969455712890625,0.18310546875,0.244140625,-0.30517578125
1781146452.7308714,0.20470424194335937,-0.05746083984375,9.957484704589843,0.06103515625,0.30517578125,-0.30517578125
1781146452.7348714,0.21428104858398436,-0.06703764648437499,9.964667309570311,0.06103515625,0.0,-0.30517578125
1781146452.7388713,0.20829554443359374,-0.08978256225585937,9.982623822021484,-0.06103515625,0.0,-0.42724609375
1781146452.7428713,0.20949264526367187,-0.06823474731445311,9.963470208740233,-0.18310546875,-0.1220703125,-0.244140625
1781146452.7468712,0.23822306518554687,-0.105344873046875,9.961076007080077,-0.244140625,-0.30517578125,0.0
1781146452.7508712,0.25258827514648435,-0.105344873046875,9.949104998779296,0.0,-0.3662109375,0.18310546875
1781146452.7548711,0.21308394775390624,-0.1592144104003906,9.920374578857421,-0.06103515625,-0.244140625,-0.06103515625
1781146452.758871,0.21068974609375,-0.16639701538085935,9.932345587158203,0.30517578125,-0.18310546875,-0.244140625
1781146452.762871,0.25258827514648435,-0.1005564697265625,9.964667309570311,0.3662109375,0.06103515625,-0.1220703125
1781146452.766871,0.24899697265624998,-0.0430956298828125,9.945513696289062,0.54931640625,0.18310546875,-0.06103515625
1781146452.770871,0.22026655273437498,-0.11851298217773437,9.906009368896484,0.1220703125,0.3662109375,0.0
1781146452.7748709,0.22026655273437498,-0.14604630126953125,9.970652813720703,-0.54931640625,0.48828125,0.0
1781146452.7788708,0.23582886352539062,-0.08140285644531249,9.97783541870117,-0.3662109375,0.42724609375,-0.06103515625
1781146452.7828708,0.2442085693359375,-0.07062894897460938,9.931148486328125,-0.244140625,0.18310546875,-0.18310546875
1781146452.7868707,0.201112939453125,-0.11372457885742186,9.932345587158203,0.3662109375,0.1220703125,0.1220703125
1781146452.7908707,0.19991583862304688,-0.1005564697265625,9.989806427001952,0.18310546875,-0.06103515625,-0.1220703125
1781146452.7948706,0.1640028137207031,-0.181959326171875,9.99220062866211,0.0,-0.18310546875,-0.30517578125
1781146452.7988706,0.1592144104003906,-0.1867477294921875,10.000580334472655,-0.1220703125,-0.18310546875,-0.3662109375
1781146452.8028705,0.2645592834472656,-0.07422025146484375,10.035296258544921,-0.3662109375,-0.3662109375,-0.1220703125
1781146452.8068705,0.30406361083984373,0.055066638183593745,9.98501802368164,0.1220703125,-0.3662109375,-0.06103515625
1781146452.8108704,0.27293898925781246,-0.10175357055664062,9.926360083007811,0.0,-0.8544921875,0.0
1781146452.8148704,0.19393033447265623,-0.10175357055664062,10.038887561035155,-0.30517578125,-0.48828125,0.06103515625
1781146452.8188703,0.22266075439453123,-0.05746083984375,9.991003527832031,-0.8544921875,-0.244140625,-0.06103515625
1781146452.8228703,0.25139117431640623,-0.06464344482421874,9.879673150634765,-0.54931640625,0.3662109375,-0.30517578125
1781146452.8268702,0.25258827514648435,-0.07900865478515624,9.842563024902343,-0.48828125,-0.1220703125,-0.06103515625
1781146452.8308702,0.26695348510742184,-0.09576806640624999,9.919177478027343,0.0,0.30517578125,-0.1220703125
1781146452.83487,0.2501940734863281,-0.19991583862304688,10.007762939453125,-0.6103515625,0.244140625,-0.18310546875
1781146452.83887,0.2597708801269531,-0.14724340209960937,10.024522351074218,-0.42724609375,0.1220703125,-0.18310546875
1781146452.84287,0.25139117431640623,-0.08738836059570312,9.950302099609374,-0.54931640625,-0.1220703125,-0.1220703125
1781146452.84687,0.20829554443359374,-0.11372457885742186,9.923965881347655,0.0,0.0,-0.1220703125
1781146452.85087,0.19393033447265623,-0.12210428466796874,9.956287603759765,0.06103515625,0.06103515625,-0.1220703125
1781146452.8548698,0.19393033447265623,-0.11252747802734374,10.002974536132811,-0.30517578125,0.30517578125,-0.244140625
1781146452.8588698,0.13407529296874998,-0.08978256225585937,9.97783541870117,-0.3662109375,0.54931640625,-0.1220703125
1781146452.8628697,0.20350714111328125,-0.04668693237304687,9.923965881347655,-0.42724609375,0.1220703125,-0.18310546875
1781146452.8668697,0.19991583862304688,-0.020350714111328123,9.97903251953125,-0.48828125,-0.1220703125,-0.244140625
1781146452.8708696,0.1580173095703125,-0.029927520751953124,10.040084661865233,-0.91552734375,-0.18310546875,-0.244140625
1781146452.8748696,0.1352723937988281,-0.09217676391601562,10.026916552734374,-0.91552734375,-0.54931640625,-0.3662109375
1781146452.8788695,0.10295067138671875,-0.10414777221679687,10.029310754394531,-0.91552734375,-1.15966796875,-0.244140625
1781146452.8828695,0.13646949462890623,-0.08499415893554688,10.019733947753906,-0.48828125,-1.03759765625,-0.06103515625
1781146452.8868694,0.1197100830078125,-0.08140285644531249,9.964667309570311,-0.48828125,-1.03759765625,-0.244140625
1781146452.8908694,0.15682020874023436,-0.10295067138671875,9.949104998779296,-0.42724609375,-1.28173828125,0.1220703125
1781146452.8948693,0.17597382202148437,-0.08379705810546874,9.961076007080077,-0.54931640625,-1.15966796875,-0.1220703125
1781146452.8988693,0.17238251953125,-0.05626373901367187,9.964667309570311,-0.79345703125,-1.46484375,0.1220703125
1781146452.9028692,0.21906945190429686,-0.05985504150390625,9.938331091308592,-0.79345703125,-1.52587890625,0.0
1781146452.9068692,0.2597708801269531,-0.058657940673828124,9.937133990478515,-1.15966796875,-1.28173828125,-0.18310546875
1781146452.9108691,0.2645592834472656,-0.06344634399414062,9.947907897949218,-1.15966796875,-1.52587890625,-0.06103515625
1781146452.914869,0.24061726684570311,-0.11133037719726561,9.968258612060547,-1.0986328125,-1.40380859375,-0.06103515625
1781146452.918869,0.2561795776367187,-0.1592144104003906,9.970652813720703,-0.8544921875,-1.40380859375,-0.42724609375
1781146452.922869,0.2657563842773437,-0.16639701538085935,9.926360083007811,-1.15966796875,-1.28173828125,-0.48828125
1781146452.926869,0.25258827514648435,-0.17836802368164062,9.934739788818359,-0.6103515625,-1.220703125,-0.3662109375
1781146452.9308689,0.28969840087890625,-0.16041151123046873,9.941922393798828,-0.54931640625,-1.40380859375,-0.244140625
1781146452.9348688,0.29927520751953124,-0.19393033447265623,9.943119494628906,-0.30517578125,-1.28173828125,-0.1220703125
1781146452.9388688,0.3136404174804687,-0.17836802368164062,9.956287603759765,-0.244140625,-1.3427734375,0.0
1781146452.9428687,0.34835634155273437,-0.18076222534179687,9.944316595458984,-0.48828125,-1.40380859375,-0.06103515625
1781146452.9468687,0.35793314819335936,-0.16879121704101563,9.92755718383789,-0.1220703125,-1.3427734375,0.18310546875
1781146452.9508686,0.36272155151367186,-0.16879121704101563,9.943119494628906,0.3662109375,-0.67138671875,0.06103515625
1781146452.9548686,0.40462008056640625,-0.1867477294921875,9.922768780517577,-0.06103515625,-0.3662109375,-0.06103515625
1781146452.9588685,0.40940848388671874,-0.20470424194335937,9.907206469726562,0.0,-0.06103515625,0.1220703125
1781146452.9628685,0.430956298828125,-0.17357962036132812,9.858125335693359,0.244140625,0.30517578125,0.06103515625
1781146452.9668684,0.4644751220703125,-0.1292868896484375,9.889249957275391,0.1220703125,0.67138671875,-0.1220703125
1781146452.9708683,0.4896142395019531,-0.17597382202148437,9.874884747314452,0.3662109375,0.79345703125,-0.244140625
1781146452.9748683,0.4513070129394531,-0.24181436767578124,9.904812268066406,-0.1220703125,0.8544921875,-0.06103515625
1781146452.9788682,0.4429273071289062,-0.25139117431640623,9.92755718383789,-0.18310546875,1.52587890625,0.06103515625
1781146452.9828682,0.4656722229003906,-0.2765302917480469,9.919177478027343,0.54931640625,1.64794921875,0.06103515625
1781146452.9868681,0.430956298828125,-0.27174188842773433,9.894038360595703,0.91552734375,2.13623046875,-0.30517578125
1781146452.990868,0.39743747558593745,-0.27174188842773433,9.878476049804688,1.40380859375,2.3193359375,-0.30517578125
1781146452.994868,0.36391865234375,-0.2932897033691406,9.884461553955077,1.5869140625,2.685546875,-0.244140625
1781146452.998868,0.37828386230468747,-0.2154781494140625,9.903615167236328,1.8310546875,2.86865234375,-0.30517578125
1781146453.002868,0.3699041564941406,-0.15442600708007811,9.9215716796875,1.708984375,3.173828125,0.0
1781146453.006868,0.3842693664550781,-0.10893617553710937,9.897629663085937,1.953125,3.72314453125,0.244140625
1781146453.0108678,0.3387795349121094,-0.06823474731445311,9.93354268798828,1.77001953125,3.60107421875,0.3662109375
1781146453.0148678,-0.033518823242187495,0.08858546142578125,10.108319409179687,1.89208984375,4.45556640625,0.18310546875
1781146453.0188677,-0.22864625854492185,0.24181436767578124,9.996989031982421,1.953125,5.06591796875,-0.06103515625
1781146453.0228677,-0.3555389465332031,0.17357962036132812,9.661800799560547,1.5869140625,5.18798828125,-0.1220703125
1781146453.0268676,-0.296881005859375,0.21787235107421873,9.944316595458984,0.6103515625,4.5166015625,0.18310546875
1781146453.0308676,-0.13168109130859373,0.31483751831054685,10.417171423339843,-0.48828125,2.197265625,0.91552734375
1781146453.0348675,-0.017956512451171875,0.18914193115234373,10.364498986816406,-1.708984375,-0.42724609375,1.5869140625
1781146453.0388675,-0.06105214233398437,-0.027533319091796873,10.162188946533202,-2.0751953125,-3.173828125,1.77001953125
1781146453.0428674,-0.1640028137207031,-0.18076222534179687,10.18373676147461,-2.01416015625,-4.638671875,0.9765625
1781146453.0468674,-0.15322890625,-0.3280056274414062,10.077194787597655,-0.9765625,-5.67626953125,-0.244140625
1781146453.0508673,-0.11133037719726561,-0.3794809631347656,9.87009634399414,-0.06103515625,-5.43212890625,-1.46484375
1781146453.0548673,0.05626373901367187,-0.3447650390625,9.92755718383789,0.3662109375,-4.94384765625,-2.38037109375
1781146453.0588672,0.23223756103515625,-0.17956512451171874,10.022128149414062,0.0,-4.39453125,-3.173828125
1781146453.0628672,0.35194764404296874,-0.0143652099609375,9.907206469726562,-0.91552734375,-3.72314453125,-2.86865234375
1781146453.066867,0.4213794921875,0.19991583862304688,9.823409411621093,-1.708984375,-2.86865234375,-1.89208984375
1781146453.070867,0.4848258361816406,0.28371289672851563,9.847351428222655,-2.13623046875,-2.3193359375,-0.79345703125
1781146453.074867,0.4525041137695312,0.15682020874023436,9.836577520751952,-2.3193359375,-1.89208984375,0.42724609375
1781146453.078867,0.32920272827148434,-0.1149216796875,9.82580361328125,-2.50244140625,-0.79345703125,1.15966796875
1781146453.082867,0.2346317626953125,-0.28012159423828126,9.855731134033203,-2.25830078125,0.42724609375,1.15966796875
1781146453.0868669,0.2705447875976562,-0.3495534423828125,9.871293444824218,-1.0986328125,0.8544921875,1.220703125
1781146453.0908668,0.2813186950683594,-0.39264907226562495,9.866505041503906,0.6103515625,0.8544921875,1.28173828125
1781146453.0948668,0.30406361083984373,-0.3854664672851562,9.941922393798828,1.28173828125,0.732421875,1.0986328125
1781146453.0988667,0.36631285400390623,-0.3459621398925781,10.095151300048828,1.03759765625,0.0,0.9765625
1781146453.1028666,0.4632780212402344,-0.29089550170898437,10.129867224121092,0.8544921875,-1.0986328125,0.79345703125
1781146453.1068666,0.5255272644042969,-0.1867477294921875,10.043675964355469,0.18310546875,-2.0751953125,0.732421875
1781146453.1108665,0.55545478515625,-0.15562310791015624,9.926360083007811,-0.1220703125,-2.197265625,0.30517578125
1781146453.1148665,0.5518634826660156,-0.19512743530273435,9.860519537353515,0.1220703125,-2.38037109375,-0.54931640625
1781146453.1188664,0.49320554199218747,-0.25139117431640623,9.827000714111328,-0.18310546875,-1.40380859375,-1.3427734375
1781146453.1228664,0.4465186096191406,-0.277727392578125,9.765948571777344,-0.18310546875,0.18310546875,-2.01416015625
1781146453.1268663,0.4908113403320312,-0.25258827514648435,9.751583361816406,0.244140625,1.46484375,-2.38037109375
1781146453.1308663,0.5398924743652344,-0.15203180541992187,9.810241302490233,0.6103515625,2.3193359375,-2.25830078125
1781146453.1348662,0.5817910034179687,-0.11133037719726561,9.840168823242188,1.03759765625,3.0517578125,-1.52587890625
1781146453.1388662,0.5303156677246094,-0.17118541870117188,9.888052856445311,0.9765625,3.47900390625,-0.67138671875
1781146453.1428661,0.5111620544433594,-0.21188684692382811,9.920374578857421,1.0986328125,3.23486328125,0.48828125
1781146453.146866,0.44532150878906246,-0.22744915771484372,9.967061511230469,1.28173828125,3.84521484375,1.28173828125
1781146453.150866,0.3794809631347656,-0.239420166015625,9.910797772216796,2.25830078125,4.2724609375,1.708984375
1781146453.154866,0.22744915771484372,-0.22385785522460935,9.916783276367187,3.35693359375,5.0048828125,1.5869140625
1781146453.158866,-0.21787235107421873,-0.008379705810546874,10.059238275146484,3.72314453125,6.28662109375,0.8544921875
1781146453.1628659,-0.37828386230468747,0.11252747802734374,9.879673150634765,3.90625,7.4462890625,0.18310546875
1781146453.1668658,-0.35673604736328124,0.18555062866210936,9.712079034423828,3.11279296875,6.9580078125,0.18310546875
1781146453.1708658,-0.15083470458984374,0.43574470214843747,10.187328063964843,1.03759765625,5.18798828125,0.48828125
1781146453.1748657,-0.00718260498046875,0.5291185668945312,10.511742388916016,-0.6103515625,2.197265625,1.64794921875
1781146453.1788657,-0.0718260498046875,0.2657563842773437,10.286687432861328,-2.44140625,-1.28173828125,1.8310546875
1781146453.1828656,-0.2920926025390625,0.033518823242187495,10.20169327392578,-3.41796875,-3.662109375,1.5869140625
1781146453.1868656,-0.41419688720703124,-0.15203180541992187,10.232817895507813,-2.99072265625,-4.94384765625,0.3662109375
1781146453.1908655,-0.3591302490234375,-0.38187516479492184,9.987412225341796,-1.77001953125,-5.9814453125,-1.03759765625
1781146453.1948655,-0.16879121704101563,-0.47285482788085936,9.97783541870117,-0.67138671875,-6.103515625,-2.50244140625
1781146453.1988654,0.19632453613281248,-0.3280056274414062,10.085574493408203,0.06103515625,-6.16455078125,-3.41796875
1781146453.2028654,0.2885013000488281,-0.17238251953125,10.062829577636718,0.30517578125,-6.34765625,-3.2958984375
1781146453.2068653,0.3651157531738281,-0.12449848632812499,9.86291373901367,-0.54931640625,-5.615234375,-2.99072265625
1781146453.2108653,0.4608838195800781,0.11372457885742186,9.822212310791015,-1.40380859375,-4.33349609375,-1.953125
1781146453.2148652,0.5817910034179687,0.3172317199707031,9.792284790039062,-1.708984375,-3.23486328125,-0.8544921875
1781146453.2188652,0.5386953735351562,0.20709844360351562,9.65940659790039,-1.8310546875,-2.13623046875,0.18310546875
1781146453.222865,0.4429273071289062,0.029927520751953124,9.707290631103515,-2.13623046875,0.30517578125,1.03759765625
1781146453.226865,0.373495458984375,-0.13407529296874998,9.821015209960937,-2.13623046875,2.01416015625,1.3427734375
1781146453.230865,0.34117373657226563,-0.22864625854492185,9.897629663085937,-1.46484375,2.74658203125,1.5869140625
1781146453.234865,0.3495534423828125,-0.3172317199707031,9.879673150634765,-0.54931640625,2.86865234375,1.89208984375
1781146453.238865,0.3507505432128906,-0.3651157531738281,9.962273107910155,0.3662109375,2.44140625,1.77001953125
1781146453.2428648,0.3447650390625,-0.41419688720703124,10.096348400878906,1.15966796875,0.91552734375,1.46484375
1781146453.2468648,0.3687070556640625,-0.42975919799804685,10.128670123291014,0.9765625,-0.30517578125,1.3427734375
1781146453.2508647,0.3507505432128906,-0.373495458984375,10.08677159423828,0.732421875,-1.40380859375,0.8544921875
1781146453.2548647,0.3711012573242187,-0.2932897033691406,10.031704956054687,0.79345703125,-2.01416015625,0.244140625
1781146453.2588646,0.39264907226562495,-0.21308394775390624,9.934739788818359,0.79345703125,-2.3193359375,-0.67138671875
1781146453.2628646,0.36391865234375,-0.16280571289062498,9.87727894897461,0.48828125,-1.5869140625,-1.89208984375
1781146453.2668645,0.36272155151367186,-0.1304839904785156,9.817423907470703,0.18310546875,-0.67138671875,-2.5634765625
1781146453.2708645,0.41539398803710936,-0.06105214233398437,9.823409411621093,0.0,0.244140625,-2.5634765625
1781146453.2748644,0.4165910888671875,0.017956512451171875,9.8449572265625,-0.244140625,1.3427734375,-2.3193359375
1781146453.2788644,0.3794809631347656,0.04908113403320312,9.85094273071289,-0.3662109375,2.13623046875,-1.77001953125
1781146453.2828643,0.35673604736328124,-0.013168109130859374,9.86411083984375,-0.18310546875,2.3193359375,-0.54931640625
1781146453.2868643,0.28490999755859375,-0.08738836059570312,9.963470208740233,-0.18310546875,2.8076171875,0.54931640625
1781146453.2908642,0.23104046020507812,-0.1580173095703125,9.987412225341796,0.54931640625,2.9296875,1.46484375
1781146453.2948642,0.20829554443359374,-0.22864625854492185,9.91438907470703,1.40380859375,2.99072265625,1.8310546875
1781146453.2988641,0.19512743530273435,-0.28012159423828126,9.968258612060547,2.01416015625,2.86865234375,2.01416015625
1781146453.302864,0.1867477294921875,-0.21906945190429686,10.04247886352539,2.3193359375,2.5634765625,1.89208984375
1781146453.306864,0.21906945190429686,-0.18914193115234373,10.01733974609375,2.38037109375,2.38037109375,1.5869140625
1781146453.310864,0.2813186950683594,-0.14484920043945312,10.002974536132811,1.953125,1.8310546875,1.15966796875
1781146453.314864,0.2262520568847656,-0.027533319091796873,10.026916552734374,1.3427734375,1.5869140625,0.3662109375
1781146453.3188639,0.009576806640625,0.09576806640624999,9.983820922851562,0.67138671875,1.89208984375,-0.54931640625
1781146453.3228638,-0.06823474731445311,0.10654197387695312,9.903615167236328,0.1220703125,1.89208984375,-0.9765625
1781146453.3268638,-0.05386953735351562,0.10654197387695312,9.919177478027343,-0.30517578125,1.28173828125,-1.3427734375
1781146453.3308637,-0.025139117431640625,0.13766659545898435,10.018536846923828,-1.28173828125,0.732421875,-1.40380859375
1781146453.3348637,0.03950432739257812,0.06464344482421874,10.133458526611328,-1.8310546875,-0.48828125,-1.28173828125
1781146453.3388636,0.05027823486328125,-0.06464344482421874,10.156203442382813,-2.0751953125,-2.0751953125,-0.732421875
1781146453.3428636,0.037110125732421874,-0.16280571289062498,10.098742602539062,-1.64794921875,-3.11279296875,0.0
1781146453.3468635,0.02154781494140625,-0.23822306518554687,10.016142645263672,-1.03759765625,-3.23486328125,-0.18310546875
1781146453.3508635,0.07900865478515624,-0.3232172241210937,9.950302099609374,0.06103515625,-3.35693359375,-0.18310546875
1781146453.3548634,0.18315642700195311,-0.27892449340820313,9.907206469726562,1.03759765625,-3.2958984375,-0.3662109375
1781146453.3588634,0.31004911499023435,-0.1580173095703125,9.906009368896484,1.0986328125,-2.50244140625,-0.54931640625
1781146453.3628633,0.3687070556640625,-0.058657940673828124,9.903615167236328,0.732421875,-1.8310546875,-0.30517578125
1781146453.3668633,0.42018239135742186,-0.0047884033203125,9.854534033203125,-0.06103515625,-0.48828125,-0.1220703125
1781146453.3708632,0.4417302062988281,0.105344873046875,9.86291373901367,-0.6103515625,0.30517578125,0.1220703125
1781146453.3748631,0.4740519287109375,0.07062894897460938,9.83897172241211,-0.8544921875,0.91552734375,0.0
1781146453.378863,0.4417302062988281,-0.023942016601562498,9.848548529052733,-1.3427734375,1.15966796875,0.48828125
1781146453.382863,0.31962592163085934,-0.17597382202148437,9.932345587158203,-1.28173828125,1.5869140625,0.54931640625
1781146453.386863,0.26695348510742184,-0.2932897033691406,9.97903251953125,-1.0986328125,1.5869140625,0.3662109375
1781146453.390863,0.2501940734863281,-0.3555389465332031,9.986215124511718,-0.244140625,1.46484375,0.06103515625
1781146453.394863,0.2549824768066406,-0.37229835815429685,9.988609326171874,0.54931640625,0.67138671875,-0.1220703125
1781146453.3988628,0.2645592834472656,-0.3363853332519531,10.028113653564452,1.0986328125,0.0,-0.18310546875
1781146453.4028628,0.2885013000488281,-0.2920926025390625,10.059238275146484,1.5869140625,-0.54931640625,-0.42724609375
1781146453.4068627,0.3327940307617187,-0.20231004028320312,10.031704956054687,1.220703125,-0.79345703125,-0.18310546875
1781146453.4108627,0.3699041564941406,-0.0909796630859375,9.968258612060547,1.3427734375,-0.9765625,-0.06103515625
1781146453.4148626,0.36631285400390623,-0.03591302490234375,9.888052856445311,0.9765625,-0.6103515625,-0.1220703125
1781146453.4188626,0.36631285400390623,0.008379705810546874,9.871293444824218,0.732421875,0.244140625,-0.48828125
1781146453.4228625,0.1771709228515625,0.058657940673828124,9.835380419921874,0.3662109375,1.5869140625,-0.79345703125
1781146453.4268625,0.047884033203124995,0.10893617553710937,9.759963067626952,-0.244140625,3.173828125,-1.03759765625
1781146453.4308624,0.08499415893554688,0.12808978881835936,9.835380419921874,-0.18310546875,3.47900390625,-0.732421875
1781146453.4348624,0.18555062866210936,0.14724340209960937,10.013748443603514,-0.42724609375,3.11279296875,0.1220703125
1781146453.4388623,0.25737667846679685,0.029927520751953124,10.1131078125,-0.91552734375,2.3193359375,1.03759765625
1781146453.4428623,0.16041151123046873,-0.15442600708007811,10.129867224121092,-1.03759765625,0.8544921875,1.5869140625
1781146453.4468622,0.04189852905273437,-0.277727392578125,10.150217938232421,-0.732421875,-0.30517578125,1.77001953125
1781146453.4508622,-0.027533319091796873,-0.35673604736328124,10.058041174316406,0.244140625,-0.91552734375,1.15966796875
1781146453.454862,-0.033518823242187495,-0.33399113159179683,9.944316595458984,1.03759765625,-1.3427734375,0.3662109375
1781146453.458862,0.06584054565429687,-0.30526071166992186,9.962273107910155,1.77001953125,-1.46484375,-0.3662109375
1781146453.462862,0.24181436767578124,-0.19871873779296872,10.007762939453125,1.52587890625,-1.8310546875,-1.0986328125
1781146453.466862,0.3507505432128906,-0.044292730712890624,10.02332525024414,0.6103515625,-1.708984375,-1.3427734375
1781146453.470862,0.42377369384765623,0.076614453125,9.963470208740233,-0.54931640625,-1.708984375,-1.28173828125
1781146453.4748619,0.3591302490234375,0.1352723937988281,9.90122096557617,-1.40380859375,-1.64794921875,-1.0986328125
1781146453.4788618,0.27293898925781246,0.11133037719726561,9.822212310791015,-1.52587890625,-0.6103515625,-0.91552734375
1781146453.4828618,0.20350714111328125,-0.00239420166015625,9.7683427734375,-1.5869140625,0.244140625,-1.03759765625
1781146453.4868617,0.18914193115234373,-0.08858546142578125,9.866505041503906,-1.3427734375,0.9765625,-0.79345703125
1781146453.4908617,0.25258827514648435,-0.181959326171875,9.934739788818359,-0.91552734375,1.46484375,-0.1220703125
1781146453.4948616,0.3387795349121094,-0.23223756103515625,9.980229620361328,-0.30517578125,1.0986328125,0.3662109375
1781146453.4988616,0.34117373657226563,-0.29568390502929687,10.019733947753906,0.244140625,0.79345703125,0.8544921875
1781146453.5028615,0.3028665100097656,-0.3064578125,10.04846436767578,1.0986328125,0.18310546875,0.9765625
1781146453.5068614,0.2154781494140625,-0.2813186950683594,10.01015714111328,1.220703125,0.244140625,1.15966796875
1781146453.5108614,0.19871873779296872,-0.20350714111328125,9.949104998779296,1.64794921875,0.30517578125,0.79345703125
1781146453.5148613,0.1975216369628906,-0.11611878051757812,9.919177478027343,1.46484375,0.8544921875,0.48828125
1781146453.5188613,0.2262520568847656,0.009576806640625,9.925162982177733,1.220703125,0.67138671875,-0.06103515625
1781146453.5228612,0.2609679809570312,0.10773907470703124,9.964667309570311,0.48828125,0.8544921875,-0.3662109375
1781146453.5268612,0.2693476867675781,0.08738836059570312,9.956287603759765,-0.48828125,0.42724609375,-0.48828125
1781146453.5308611,0.2549824768066406,0.06105214233398437,9.96586441040039,-1.3427734375,0.3662109375,-0.48828125
1781146453.534861,0.17357962036132812,-0.017956512451171875,9.974244116210937,-1.5869140625,0.244140625,-0.48828125
1781146453.538861,0.08978256225585937,-0.10773907470703124,9.955090502929687,-1.5869140625,-0.06103515625,-0.67138671875
1781146453.542861,0.0909796630859375,-0.22864625854492185,9.968258612060547,-0.91552734375,-0.48828125,-0.67138671875
1781146453.546861,0.11372457885742186,-0.258573779296875,10.01733974609375,-0.30517578125,-0.8544921875,-0.6103515625
1781146453.550861,0.17597382202148437,-0.28371289672851563,10.043675964355469,0.244140625,-1.220703125,-0.54931640625
1781146453.5548608,0.2454056701660156,-0.24181436767578124,10.022128149414062,0.6103515625,-1.46484375,-0.48828125
1781146453.5588608,0.27892449340820313,-0.1879448303222656,9.9981861328125,1.03759765625,-1.708984375,-0.1220703125
1781146453.5628607,0.296881005859375,-0.08978256225585937,9.944316595458984,0.8544921875,-1.40380859375,0.30517578125
1781146453.5668607,0.31004911499023435,-0.027533319091796873,9.848548529052733,0.67138671875,-0.732421875,0.1220703125
1781146453.5708606,0.3136404174804687,0.0143652099609375,9.816226806640625,0.48828125,-0.1220703125,0.3662109375
1781146453.5748606,0.32561142578124996,0.023942016601562498,9.827000714111328,0.18310546875,0.9765625,0.18310546875
1781146453.5788605,0.36152445068359373,0.016759411621093748,9.866505041503906,-0.54931640625,1.52587890625,-0.06103515625
1781146453.5828605,0.3363853332519531,-0.03591302490234375,9.91438907470703,-0.6103515625,1.64794921875,0.1220703125
1781146453.5868604,0.31004911499023435,-0.11133037719726561,9.950302099609374,-0.79345703125,1.953125,0.18310546875
1781146453.5908604,0.23702596435546874,-0.18914193115234373,9.97783541870117,-0.67138671875,1.8310546875,0.06103515625
1781146453.5948603,0.14245499877929688,-0.2154781494140625,9.991003527832031,-0.3662109375,1.46484375,-0.18310546875
1781146453.5988603,0.086191259765625,-0.2813186950683594,10.024522351074218,0.1220703125,1.220703125,-0.244140625
1781146453.6028602,0.06703764648437499,-0.2442085693359375,10.043675964355469,0.79345703125,0.42724609375,-0.1220703125
1781146453.6068602,0.08379705810546874,-0.1879448303222656,10.046070166015625,0.91552734375,-0.30517578125,0.18310546875
1781146453.61086,0.11372457885742186,-0.1005564697265625,10.034099157714843,0.9765625,-0.91552734375,0.06103515625
1781146453.61486,0.16879121704101563,-0.033518823242187495,9.991003527832031,0.6103515625,-1.220703125,0.3662109375
1781146453.61886,0.181959326171875,0.033518823242187495,10.007762939453125,0.18310546875,-1.28173828125,0.06103515625
1781146453.62286,0.229843359375,0.04908113403320312,9.9215716796875,-0.244140625,-1.220703125,0.30517578125
1781146453.62686,0.24181436767578124,0.003591302490234375,9.90122096557617,-0.732421875,-0.91552734375,-0.1220703125
1781146453.6308599,0.2825157958984375,-0.0526724365234375,9.911994873046874,-1.0986328125,-0.3662109375,-0.48828125
1781146453.6348598,0.32082302246093747,-0.12210428466796874,9.859322436523437,-1.220703125,-0.244140625,-0.79345703125
1781146453.6388597,0.3315969299316406,-0.201112939453125,9.906009368896484,-0.91552734375,-0.06103515625,-0.91552734375
1781146453.6428597,0.3315969299316406,-0.19632453613281248,10.020931048583984,-0.732421875,-0.06103515625,-0.67138671875
1781146453.6468596,0.32082302246093747,-0.25737667846679685,9.969455712890625,-0.30517578125,0.0,-0.8544921875
1781146453.6508596,0.2861070983886719,-0.2705447875976562,9.957484704589843,0.244140625,0.1220703125,-0.6103515625
1781146453.6548595,0.24301146850585936,-0.21308394775390624,9.98501802368164,0.54931640625,0.244140625,-0.1220703125
1781146453.6588595,0.22505495605468748,-0.1197100830078125,9.94072529296875,1.03759765625,0.42724609375,0.0
1781146453.6628594,0.18914193115234373,-0.086191259765625,9.91438907470703,1.03759765625,0.54931640625,0.42724609375
1781146453.6668594,0.20709844360351562,-0.022744915771484374,9.935936889648437,0.67138671875,0.732421875,0.732421875
1781146453.6708593,0.229843359375,0.029927520751953124,9.955090502929687,0.18310546875,0.79345703125,0.9765625
1781146453.6748593,0.25258827514648435,0.02154781494140625,9.945513696289062,-0.06103515625,0.79345703125,1.0986328125
1781146453.6788592,0.25139117431640623,-0.031124621582031248,9.968258612060547,-0.30517578125,0.8544921875,0.67138671875
1781146453.6828592,0.21308394775390624,-0.08738836059570312,9.980229620361328,-0.48828125,0.79345703125,0.42724609375
1781146453.6868591,0.17118541870117188,-0.1292868896484375,9.969455712890625,-0.67138671875,0.8544921875,-0.06103515625
1781146453.690859,0.17597382202148437,-0.18076222534179687,9.989806427001952,-0.6103515625,0.6103515625,-0.42724609375
1781146453.694859,0.18076222534179687,-0.2059013427734375,10.022128149414062,-0.3662109375,-0.244140625,-0.91552734375
1781146453.698859,0.15442600708007811,-0.201112939453125,10.035296258544921,-0.30517578125,-0.54931640625,-1.03759765625
1781146453.702859,0.1352723937988281,-0.17477672119140625,10.007762939453125,0.18310546875,-0.9765625,-1.03759765625
1781146453.7068589,0.16879121704101563,-0.15203180541992187,9.974244116210937,0.3662109375,-1.220703125,-0.79345703125
1781146453.7108588,0.16041151123046873,-0.06344634399414062,9.986215124511718,0.06103515625,-1.28173828125,-0.732421875
1781146453.7148588,0.2166752502441406,-0.0047884033203125,9.941922393798828,0.1220703125,-1.3427734375,-0.18310546875
1781146453.7188587,0.26216508178710934,-0.00718260498046875,9.91558617553711,0.0,-0.9765625,0.0
1781146453.7228587,0.28730419921875,-0.02633621826171875,9.903615167236328,0.0,-0.6103515625,0.30517578125
1781146453.7268586,0.3220201232910156,-0.06823474731445311,9.922768780517577,-0.54931640625,-0.244140625,0.732421875
1781146453.7308586,0.3603273498535156,-0.11372457885742186,9.903615167236328,-0.48828125,0.18310546875,0.30517578125
1781146453.7348585,0.34715924072265625,-0.1484405029296875,9.87608184814453,-0.244140625,0.732421875,0.42724609375
1781146453.7388585,0.32920272827148434,-0.22026655273437498,9.889249957275391,-0.06103515625,0.79345703125,0.3662109375
1781146453.7428584,0.29448680419921874,-0.239420166015625,9.961076007080077,0.18310546875,1.0986328125,0.0
1781146453.7468584,0.26216508178710934,-0.22864625854492185,9.975441217041014,0.48828125,1.15966796875,-0.06103515625
1781146453.7508583,0.2597708801269531,-0.1580173095703125,9.97184991455078,0.42724609375,1.15966796875,-0.42724609375
1781146453.7548583,0.21787235107421873,-0.14006079711914063,10.01015714111328,0.79345703125,0.91552734375,-0.30517578125
1781146453.7588582,0.16639701538085935,-0.051475335693359374,10.018536846923828,0.732421875,0.732421875,-0.1220703125
1781146453.7628582,0.14724340209960937,0.00239420166015625,9.99220062866211,0.6103515625,0.42724609375,-0.06103515625
1781146453.766858,0.09816226806640624,0.03232172241210937,9.980229620361328,0.244140625,0.18310546875,0.18310546875
1781146453.770858,0.105344873046875,0.029927520751953124,9.99220062866211,-0.18310546875,0.0,0.54931640625
1781146453.774858,0.15562310791015624,-0.028730419921875,9.956287603759765,-0.1220703125,-0.1220703125,0.67138671875
1781146453.778858,0.16160861206054686,-0.076614453125,9.970652813720703,-0.42724609375,-0.42724609375,0.30517578125
1781146453.782858,0.20231004028320312,-0.10414777221679687,9.980229620361328,-0.48828125,-0.732421875,0.06103515625
1781146453.7868578,0.229843359375,-0.16519991455078123,9.981426721191406,-0.54931640625,-0.79345703125,-0.42724609375
1781146453.7908578,0.2561795776367187,-0.1927332336425781,9.975441217041014,-0.48828125,-0.9765625,-0.42724609375
1781146453.7948577,0.24899697265624998,-0.2059013427734375,9.982623822021484,-0.1220703125,-0.8544921875,-0.6103515625
1781146453.7988577,0.26815058593749996,-0.18315642700195311,9.970652813720703,0.0,-0.732421875,-0.8544921875
1781146453.8028576,0.2657563842773437,-0.1304839904785156,9.941922393798828,-0.06103515625,-0.67138671875,-1.03759765625
1781146453.8068576,0.2645592834472656,-0.08738836059570312,9.928754284667969,-0.06103515625,-0.244140625,-0.79345703125
1781146453.8108575,0.27174188842773433,-0.07062894897460938,9.906009368896484,0.1220703125,-0.06103515625,-0.3662109375
1781146453.8148575,0.25737667846679685,-0.01915361328125,9.922768780517577,-0.06103515625,0.1220703125,-0.1220703125
1781146453.8188574,0.24660277099609373,-0.0430956298828125,9.91438907470703,0.06103515625,0.42724609375,0.42724609375
1781146453.8228574,0.23702596435546874,-0.08140285644531249,9.926360083007811,-0.244140625,0.6103515625,0.48828125
1781146453.8268573,0.23702596435546874,-0.11013327636718749,9.925162982177733,-0.3662109375,0.732421875,0.6103515625
1781146453.8308573,0.21787235107421873,-0.14484920043945312,9.929951385498047,0.0,0.79345703125,0.732421875
1781146453.8348572,0.2214636535644531,-0.15083470458984374,9.975441217041014,0.18310546875,0.67138671875,0.54931640625
1781146453.8388572,0.2154781494140625,-0.15562310791015624,10.020931048583984,0.244140625,0.42724609375,0.48828125
1781146453.8428571,0.18555062866210936,-0.14245499877929688,10.110713610839843,0.30517578125,0.48828125,-0.1220703125
1781146453.846857,0.2214636535644531,-0.13407529296874998,10.002974536132811,0.42724609375,0.06103515625,-0.18310546875
1781146453.850857,0.20231004028320312,-0.13407529296874998,9.874884747314452,0.18310546875,-0.3662109375,-0.244140625
1781146453.854857,0.2346317626953125,-0.086191259765625,9.974244116210937,-0.244140625,-0.48828125,-0.244140625
1781146453.858857,0.2166752502441406,-0.05626373901367187,9.97903251953125,-0.1220703125,-0.8544921875,-0.6103515625
1781146453.8628569,0.18914193115234373,-0.10414777221679687,9.880870251464843,-0.244140625,-0.67138671875,-0.6103515625
1781146453.8668568,0.20350714111328125,-0.06344634399414062,9.9215716796875,-0.48828125,-0.79345703125,-0.42724609375
1781146453.8708568,0.23223756103515625,-0.028730419921875,9.991003527832031,-0.48828125,-0.8544921875,-0.42724609375
1781146453.8748567,0.2597708801269531,-0.10893617553710937,9.950302099609374,-0.18310546875,-0.67138671875,-0.30517578125
1781146453.8788567,0.2693476867675781,-0.16759411621093748,9.916783276367187,-0.18310546875,-0.67138671875,-0.06103515625
1781146453.8828566,0.2561795776367187,-0.19871873779296872,9.922768780517577,-0.244140625,-0.30517578125,0.0
1781146453.8868566,0.28490999755859375,-0.17597382202148437,9.916783276367187,-0.244140625,-0.244140625,0.0
1781146453.8908565,0.24899697265624998,-0.20470424194335937,9.906009368896484,-0.06103515625,0.244140625,-0.1220703125
1781146453.8948565,0.28012159423828126,-0.16519991455078123,9.931148486328125,0.244140625,0.244140625,0.06103515625
1781146453.8988564,0.26695348510742184,-0.201112939453125,9.931148486328125,0.42724609375,0.48828125,-0.06103515625
1781146453.9028563,0.2561795776367187,-0.13646949462890623,9.950302099609374,0.42724609375,0.30517578125,0.0
1781146453.9068563,0.23702596435546874,-0.11252747802734374,9.96586441040039,0.18310546875,0.9765625,-0.244140625
1781146453.9108562,0.24301146850585936,-0.06105214233398437,9.988609326171874,0.30517578125,0.54931640625,0.0
1781146453.9148562,0.20470424194335937,-0.06823474731445311,9.93354268798828,-0.06103515625,0.3662109375,0.244140625
1781146453.9188561,0.18435352783203124,-0.06464344482421874,9.944316595458984,-0.3662109375,0.48828125,0.06103515625
1781146453.922856,0.1640028137207031,-0.09696516723632811,9.956287603759765,-0.3662109375,0.18310546875,0.0
1781146453.926856,0.20829554443359374,-0.11611878051757812,9.996989031982421,-0.30517578125,-0.06103515625,0.18310546875
1781146453.930856,0.16998831787109375,-0.13168109130859373,10.005368737792969,-0.30517578125,-0.244140625,0.06103515625
1781146453.934856,0.21308394775390624,-0.1640028137207031,9.988609326171874,-0.30517578125,-0.6103515625,-0.18310546875
1781146453.938856,0.2262520568847656,-0.14963760375976562,9.983820922851562,0.0,-0.54931640625,-0.54931640625
1781146453.9428558,0.24899697265624998,-0.14604630126953125,9.976638317871092,0.0,-1.03759765625,-0.54931640625
1781146453.9468558,0.2501940734863281,-0.14006079711914063,9.945513696289062,-0.06103515625,-0.67138671875,-0.42724609375
1781146453.9508557,0.27174188842773433,-0.12569558715820311,9.920374578857421,-0.1220703125,-0.91552734375,-0.3662109375
1781146453.9548557,0.26216508178710934,-0.08858546142578125,9.928754284667969,-0.18310546875,-0.48828125,-0.732421875
1781146453.9588556,0.2609679809570312,-0.06823474731445311,9.925162982177733,-0.1220703125,-0.18310546875,-0.06103515625
1781146453.9628556,0.2549824768066406,-0.06464344482421874,9.909600671386718,-0.3662109375,0.18310546875,-0.18310546875
1781146453.9668555,0.2825157958984375,-0.06344634399414062,9.925162982177733,-0.1220703125,0.67138671875,0.18310546875
1781146453.9708555,0.2645592834472656,-0.08499415893554688,9.947907897949218,-0.42724609375,0.54931640625,-0.1220703125
1781146453.9748554,0.24899697265624998,-0.09576806640624999,9.963470208740233,-0.1220703125,0.8544921875,0.244140625
1781146453.9788554,0.2059013427734375,-0.11013327636718749,9.97903251953125,-0.06103515625,0.6103515625,0.18310546875
1781146453.9828553,0.21787235107421873,-0.12449848632812499,9.967061511230469,-0.06103515625,0.48828125,0.244140625
1781146453.9868553,0.21068974609375,-0.1292868896484375,9.980229620361328,0.1220703125,0.6103515625,-0.06103515625
1781146453.9908552,0.20949264526367187,-0.13287819213867186,9.97783541870117,0.1220703125,0.54931640625,0.06103515625
1781146453.9948552,0.2166752502441406,-0.12449848632812499,9.969455712890625,-0.06103515625,-0.18310546875,-0.06103515625
1781146453.998855,0.19512743530273435,-0.1197100830078125,9.982623822021484,0.18310546875,-0.244140625,-0.06103515625
1781146454.002855,0.19991583862304688,-0.10773907470703124,9.967061511230469,0.1220703125,-0.18310546875,-0.48828125
1781146454.006855,0.20470424194335937,-0.08259995727539061,9.973047015380859,-0.30517578125,-0.54931640625,-0.30517578125
1781146454.010855,0.24181436767578124,-0.08738836059570312,9.97783541870117,-0.3662109375,-0.732421875,-0.3662109375
1781146454.014855,0.23702596435546874,-0.086191259765625,9.973047015380859,-0.42724609375,-0.67138671875,-0.42724609375
1781146454.0188549,0.22744915771484372,-0.09457096557617187,9.963470208740233,-0.3662109375,-0.30517578125,-0.48828125
1781146454.0228548,0.23343466186523437,-0.12689268798828124,9.945513696289062,-0.54931640625,-0.42724609375,-0.42724609375
1781146454.0268548,0.22505495605468748,-0.10773907470703124,9.961076007080077,-0.30517578125,-0.1220703125,-0.18310546875
1781146454.0308547,0.22385785522460935,-0.1580173095703125,9.937133990478515,-0.06103515625,-0.1220703125,-0.244140625
1781146454.0348547,0.28371289672851563,-0.16879121704101563,9.913191973876952,0.06103515625,-0.06103515625,-0.18310546875
1781146454.0388546,0.277727392578125,-0.1388636962890625,9.944316595458984,-0.06103515625,0.18310546875,0.0
1781146454.0428545,0.23822306518554687,-0.15322890625,9.943119494628906,0.0,0.30517578125,0.1220703125
1781146454.0468545,0.2454056701660156,-0.12210428466796874,9.931148486328125,0.0,0.42724609375,0.0
1781146454.0508544,0.26336218261718747,-0.14125789794921875,9.935936889648437,0.06103515625,0.42724609375,0.1220703125
1781146454.0548544,0.239420166015625,-0.10414777221679687,9.947907897949218,0.244140625,0.48828125,0.1220703125
1781146454.0588543,0.21308394775390624,-0.08140285644531249,9.947907897949218,0.1220703125,0.3662109375,0.1220703125
1781146454.0628543,0.22744915771484372,-0.07900865478515624,9.94671079711914,-0.06103515625,0.6103515625,0.244140625
1781146454.0668542,0.19991583862304688,-0.0909796630859375,9.989806427001952,-0.18310546875,0.244140625,0.06103515625
1781146454.0708542,0.181959326171875,-0.1005564697265625,9.981426721191406,-0.3662109375,0.3662109375,-0.244140625
1781146454.0748541,0.20231004028320312,-0.1304839904785156,9.967061511230469,0.0,0.0,-0.1220703125
1781146454.078854,0.201112939453125,-0.13766659545898435,9.956287603759765,-0.06103515625,-0.18310546875,-0.18310546875
1781146454.082854,0.24779987182617186,-0.1484405029296875,9.97783541870117,0.18310546875,-0.244140625,-0.244140625
1781146454.086854,0.22505495605468748,-0.1484405029296875,9.974244116210937,-0.18310546875,-0.48828125,-0.6103515625
1781146454.090854,0.22505495605468748,-0.13646949462890623,9.975441217041014,0.06103515625,-0.732421875,-0.3662109375
1781146454.0948539,0.23702596435546874,-0.09816226806640624,9.956287603759765,-0.06103515625,-0.30517578125,-0.18310546875
1781146454.0988538,0.2609679809570312,-0.11013327636718749,9.926360083007811,-0.244140625,-0.54931640625,-0.06103515625
1781146454.1028538,0.2693476867675781,-0.08499415893554688,9.92755718383789,0.1220703125,-0.18310546875,-0.3662109375
1781146454.1068537,0.23822306518554687,-0.058657940673828124,9.952696301269532,0.0,0.06103515625,-0.244140625
1781146454.1108537,0.2741360900878906,-0.08379705810546874,9.934739788818359,-0.06103515625,0.06103515625,-0.1220703125
1781146454.1148536,0.229843359375,-0.10295067138671875,9.962273107910155,-0.48828125,0.30517578125,0.1220703125
1781146454.1188536,0.2549824768066406,-0.11013327636718749,9.947907897949218,-0.244140625,0.54931640625,0.1220703125
1781146454.1228535,0.24779987182617186,-0.12689268798828124,9.97184991455078,0.0,0.79345703125,-0.1220703125
1781146454.1268535,0.23104046020507812,-0.1388636962890625,9.97184991455078,-0.18310546875,0.54931640625,-0.1220703125
1781146454.1308534,0.2154781494140625,-0.15322890625,9.968258612060547,0.0,0.42724609375,0.1220703125
1781146454.1348534,0.22385785522460935,-0.14006079711914063,9.97184991455078,0.1220703125,0.30517578125,0.244140625
1781146454.1388533,0.20949264526367187,-0.14245499877929688,9.958681805419921,0.30517578125,0.18310546875,0.30517578125
1781146454.1428533,0.2262520568847656,-0.12808978881835936,9.968258612060547,0.3662109375,0.1220703125,0.244140625
1781146454.1468532,0.20829554443359374,-0.10175357055664062,9.963470208740233,0.244140625,0.0,0.0
1781146454.1508532,0.21906945190429686,-0.10414777221679687,9.957484704589843,0.18310546875,-0.06103515625,0.244140625
1781146454.154853,0.22385785522460935,-0.08379705810546874,9.95389340209961,0.30517578125,-0.18310546875,0.3662109375
1781146454.158853,0.22744915771484372,-0.07422025146484375,9.970652813720703,-0.1220703125,0.0,-0.06103515625
1781146454.162853,0.2262520568847656,-0.10175357055664062,9.931148486328125,-0.30517578125,0.06103515625,0.0
1781146454.166853,0.2549824768066406,-0.10654197387695312,9.95389340209961,-0.30517578125,0.1220703125,-0.06103515625
1781146454.170853,0.21787235107421873,-0.1149216796875,9.94072529296875,-0.1220703125,0.06103515625,-0.30517578125
1781146454.1748528,0.20470424194335937,-0.13407529296874998,9.962273107910155,-0.18310546875,0.06103515625,-0.42724609375
1781146454.1788528,0.23104046020507812,-0.15442600708007811,9.949104998779296,-0.244140625,0.1220703125,-0.244140625
1781146454.1828527,0.21068974609375,-0.17238251953125,9.967061511230469,0.0,0.0,-0.1220703125
1781146454.1868527,0.2537853759765625,-0.10414777221679687,9.98501802368164,0.0,0.06103515625,-0.18310546875
1781146454.1908526,0.21906945190429686,-0.16280571289062498,9.975441217041014,0.3662109375,-0.244140625,-0.06103515625
1781146454.1948526,0.22744915771484372,-0.14125789794921875,9.956287603759765,0.18310546875,-0.06103515625,0.1220703125
1781146454.1988525,0.22385785522460935,-0.12210428466796874,9.94671079711914,0.30517578125,0.0,-0.06103515625
1781146454.2028525,0.2442085693359375,-0.07422025146484375,9.943119494628906,0.3662109375,0.244140625,0.06103515625
1781146454.2068524,0.229843359375,-0.076614453125,9.937133990478515,0.06103515625,0.06103515625,0.06103515625
1781146454.2108524,0.2609679809570312,-0.09457096557617187,9.928754284667969,0.244140625,0.3662109375,0.06103515625
1781146454.2148523,0.2609679809570312,-0.08858546142578125,9.935936889648437,-0.244140625,0.54931640625,0.1220703125
1781146454.2188523,0.23343466186523437,-0.08020575561523437,9.94072529296875,-0.1220703125,0.30517578125,0.0
1781146454.2228522,0.23702596435546874,-0.11372457885742186,9.952696301269532,-0.1220703125,0.3662109375,-0.1220703125
1781146454.2268522,0.24779987182617186,-0.11252747802734374,9.937133990478515,-0.18310546875,0.244140625,-0.18310546875
1781146454.2308521,0.2657563842773437,-0.12330138549804687,9.970652813720703,0.0,0.18310546875,-0.30517578125
1781146454.234852,0.22505495605468748,-0.09337386474609374,9.981426721191406,-0.06103515625,0.18310546875,-0.3662109375
1781146454.238852,0.2154781494140625,-0.09217676391601562,10.006565838623047,-0.1220703125,0.244140625,-0.3662109375
1781146454.2428331,0.20949264526367187,-0.08738836059570312,9.98501802368164,-0.1220703125,-0.06103515625,-0.30517578125
1781146454.246833,0.19632453613281248,-0.086191259765625,9.989806427001952,0.0,-0.18310546875,-0.244140625
1781146454.250833,0.2166752502441406,-0.08738836059570312,9.957484704589843,-0.1220703125,0.06103515625,-0.30517578125
1781146454.254833,0.19393033447265623,-0.08978256225585937,9.967061511230469,-0.18310546875,-0.244140625,0.0
1781146454.258833,0.22744915771484372,-0.076614453125,9.962273107910155,0.06103515625,0.0,0.06103515625
1781146454.2628329,0.22505495605468748,-0.08858546142578125,9.94671079711914,0.06103515625,-0.18310546875,-0.244140625
1781146454.2668328,0.22744915771484372,-0.11372457885742186,9.951499200439452,-0.06103515625,0.06103515625,-0.1220703125
1781146454.2708328,0.23223756103515625,-0.12689268798828124,9.967061511230469,0.0,0.06103515625,-0.06103515625
1781146454.2748327,0.23582886352539062,-0.12808978881835936,9.957484704589843,-0.18310546875,0.18310546875,0.0
1781146454.2788327,0.23702596435546874,-0.1304839904785156,9.944316595458984,-0.18310546875,0.244140625,-0.1220703125
1781146454.2828326,0.2549824768066406,-0.14006079711914063,9.938331091308592,-0.06103515625,0.30517578125,-0.3662109375
1781146454.2868326,0.20709844360351562,-0.143652099609375,9.945513696289062,0.0,0.3662109375,-0.18310546875
1781146454.2908325,0.23343466186523437,-0.13766659545898435,9.957484704589843,-0.06103515625,0.30517578125,-0.18310546875
1781146454.2948143,0.24181436767578124,-0.12689268798828124,9.95389340209961,0.0,0.1220703125,-0.1220703125
1781146454.2988143,0.21906945190429686,-0.11252747802734374,9.961076007080077,0.0,0.244140625,0.06103515625
1781146454.3028142,0.23702596435546874,-0.10175357055664062,9.958681805419921,0.06103515625,-0.1220703125,0.06103515625
1781146454.3068016,0.23104046020507812,-0.076614453125,9.961076007080077,0.30517578125,0.18310546875,0.0
1781146454.3108015,0.21428104858398436,-0.10893617553710937,9.955090502929687,0.18310546875,-0.06103515625,0.1220703125
1781146454.3147635,0.24061726684570311,-0.1352723937988281,9.93952819213867,0.18310546875,0.244140625,0.1220703125
1781146454.3187635,0.25139117431640623,-0.11252747802734374,9.95987890625,0.1220703125,-0.1220703125,-0.06103515625
1781146454.3227558,0.24779987182617186,-0.12330138549804687,9.945513696289062,0.0,-0.1220703125,0.0
1781146454.3267558,0.2501940734863281,-0.11013327636718749,9.951499200439452,-0.06103515625,0.06103515625,-0.06103515625
1781146454.3307557,0.2645592834472656,-0.10295067138671875,9.934739788818359,-0.1220703125,0.244140625,-0.06103515625
1781146454.3347557,0.24061726684570311,-0.12210428466796874,9.969455712890625,-0.06103515625,0.0,-0.3662109375
1781146454.3387556,0.2454056701660156,-0.13168109130859373,9.950302099609374,-0.1220703125,0.06103515625,-0.42724609375
1781146454.3427556,0.22744915771484372,-0.1292868896484375,9.95987890625,0.1220703125,-0.06103515625,-0.30517578125
1781146454.3467555,0.2442085693359375,-0.12689268798828124,9.945513696289062,-0.18310546875,0.0,-0.244140625
1781146454.3507555,0.2059013427734375,-0.10175357055664062,9.950302099609374,-0.1220703125,-0.06103515625,-0.06103515625
1781146454.3547554,0.20231004028320312,-0.10414777221679687,9.97184991455078,0.06103515625,-0.1220703125,-0.244140625
1781146454.3587265,0.21188684692382811,-0.08858546142578125,9.943119494628906,0.06103515625,0.1220703125,0.06103515625
1781146454.3627264,0.24061726684570311,-0.07422025146484375,9.947907897949218,-0.244140625,0.1220703125,0.1220703125
1781146454.3667264,0.20470424194335937,-0.08858546142578125,9.962273107910155,0.18310546875,0.18310546875,0.1220703125
1781146454.3707263,0.21787235107421873,-0.105344873046875,9.950302099609374,-0.244140625,0.1220703125,0.1220703125
1781146454.3747263,0.23223756103515625,-0.10773907470703124,9.963470208740233,0.3662109375,-0.18310546875,-0.06103515625
1781146454.3787262,0.23582886352539062,-0.1197100830078125,9.967061511230469,0.0,0.244140625,-0.3662109375
1781146454.3827262,0.2262520568847656,-0.10773907470703124,9.96586441040039,0.0,0.0,-0.18310546875
1781146454.3867261,0.24660277099609373,-0.09816226806640624,9.967061511230469,0.06103515625,0.18310546875,-0.18310546875
1781146454.390726,0.21068974609375,-0.09816226806640624,9.95389340209961,-0.06103515625,-0.1220703125,-0.48828125
1781146454.394726,0.22026655273437498,-0.09696516723632811,9.955090502929687,0.1220703125,-0.1220703125,-0.18310546875
1781146454.398726,0.22744915771484372,-0.09337386474609374,9.958681805419921,-0.18310546875,0.0,-0.3662109375
1781146454.402726,0.22026655273437498,-0.0909796630859375,9.952696301269532,-0.1220703125,0.06103515625,-0.30517578125
1781146454.406726,0.23343466186523437,-0.07900865478515624,9.937133990478515,0.0,-0.06103515625,-0.1220703125
1781146454.4107258,0.20709844360351562,-0.08379705810546874,9.962273107910155,0.0,0.18310546875,0.06103515625
1781146454.4147258,0.21787235107421873,-0.1197100830078125,9.964667309570311,0.0,0.1220703125,-0.1220703125
1781146454.4187257,0.2442085693359375,-0.12330138549804687,9.947907897949218,-0.1220703125,-0.06103515625,-0.1220703125
1781146454.4227257,0.239420166015625,-0.13407529296874998,9.958681805419921,-0.1220703125,-0.1220703125,-0.30517578125
1781146454.4267256,0.22744915771484372,-0.1352723937988281,9.941922393798828,0.06103515625,0.0,0.06103515625
1781146454.4307256,0.23223756103515625,-0.13168109130859373,9.97783541870117,-0.30517578125,0.18310546875,0.0
1781146454.4347255,0.2537853759765625,-0.1304839904785156,9.944316595458984,0.0,0.1220703125,-0.18310546875
1781146454.4387255,0.22744915771484372,-0.13287819213867186,9.937133990478515,0.06103515625,-0.06103515625,-0.06103515625
1781146454.4427254,0.2262520568847656,-0.09696516723632811,9.945513696289062,0.06103515625,0.3662109375,-0.3662109375
1781146454.4467254,0.239420166015625,-0.09935936889648436,9.943119494628906,-0.06103515625,0.0,-0.18310546875
1781146454.4507253,0.22505495605468748,-0.1005564697265625,9.970652813720703,0.06103515625,0.06103515625,-0.42724609375
1781146454.4547253,0.22744915771484372,-0.06703764648437499,9.941922393798828,-0.42724609375,0.06103515625,-0.244140625
1781146454.4587252,0.21068974609375,-0.08858546142578125,9.968258612060547,-0.06103515625,0.18310546875,-0.1220703125
1781146454.4627252,0.23343466186523437,-0.11013327636718749,9.967061511230469,-0.1220703125,0.18310546875,-0.06103515625
1781146454.466725,0.2262520568847656,-0.1388636962890625,9.961076007080077,0.0,0.1220703125,-0.244140625
1781146454.470725,0.22744915771484372,-0.1388636962890625,9.967061511230469,-0.30517578125,-0.06103515625,-0.06103515625
1781146454.474725,0.24061726684570311,-0.14484920043945312,9.968258612060547,-0.06103515625,-0.06103515625,0.0
1781146454.478725,0.19991583862304688,-0.12210428466796874,9.973047015380859,0.0,-0.1220703125,-0.1220703125
1781146454.482725,0.22026655273437498,-0.14604630126953125,9.963470208740233,0.1220703125,-0.1220703125,0.1220703125
1781146454.4867249,0.26216508178710934,-0.11731588134765625,9.95987890625,0.30517578125,-0.06103515625,-0.30517578125
1781146454.4907248,0.25737667846679685,-0.12449848632812499,9.956287603759765,0.0,0.1220703125,-0.244140625
1781146454.4947248,0.22744915771484372,-0.10414777221679687,9.935936889648437,0.06103515625,0.0,-0.1220703125
1781146454.4987247,0.24899697265624998,-0.09217676391601562,9.947907897949218,0.06103515625,0.244140625,-0.1220703125
1781146454.5027246,0.22266075439453123,-0.08259995727539061,9.958681805419921,0.0,0.18310546875,-0.42724609375
1781146454.5067246,0.20949264526367187,-0.07422025146484375,9.955090502929687,0.06103515625,0.30517578125,-0.1220703125
1781146454.5107245,0.2501940734863281,-0.09337386474609374,9.962273107910155,-0.06103515625,0.1220703125,0.0
1781146454.5147245,0.24181436767578124,-0.10295067138671875,9.97903251953125,-0.1220703125,0.244140625,0.0
1781146454.5187244,0.23223756103515625,-0.09457096557617187,9.967061511230469,-0.1220703125,0.18310546875,0.06103515625
1781146454.5227244,0.229843359375,-0.11013327636718749,9.967061511230469,0.30517578125,0.0,-0.1220703125
1781146454.5267243,0.2154781494140625,-0.1292868896484375,9.932345587158203,0.18310546875,0.1220703125,0.0
1781146454.5307243,0.22744915771484372,-0.11851298217773437,9.943119494628906,0.18310546875,-0.06103515625,-0.1220703125
1781146454.5347242,0.24779987182617186,-0.1352723937988281,9.962273107910155,0.244140625,-0.06103515625,-0.18310546875
1781146454.5387242,0.22744915771484372,-0.12449848632812499,9.955090502929687,0.0,-0.06103515625,-0.18310546875
1781146454.5427241,0.22744915771484372,-0.10654197387695312,9.962273107910155,0.1220703125,-0.06103515625,-0.18310546875
1781146454.546724,0.24779987182617186,-0.09935936889648436,9.955090502929687,0.1220703125,0.06103515625,-0.1220703125
1781146454.550724,0.229843359375,-0.11133037719726561,9.94671079711914,-0.244140625,0.0,-0.1220703125
1781146454.554724,0.229843359375,-0.11731588134765625,9.94671079711914,-0.244140625,0.0,-0.244140625
1781146454.558724,0.23343466186523437,-0.0909796630859375,9.96586441040039,0.1220703125,0.1220703125,-0.244140625
1781146454.5627239,0.23582886352539062,-0.1388636962890625,9.963470208740233,0.06103515625,0.06103515625,-0.06103515625
1781146454.5667238,0.25258827514648435,-0.10654197387695312,9.967061511230469,0.1220703125,0.0,-0.244140625
1781146454.5707238,0.2549824768066406,-0.13407529296874998,9.969455712890625,0.18310546875,0.1220703125,0.06103515625
1781146454.5747237,0.2262520568847656,-0.10414777221679687,9.951499200439452,-0.06103515625,0.1220703125,-0.06103515625
1781146454.5787237,0.22266075439453123,-0.08259995727539061,9.952696301269532,0.244140625,0.06103515625,0.18310546875
1781146454.5827236,0.2442085693359375,-0.11013327636718749,9.96586441040039,0.244140625,0.06103515625,0.06103515625
1781146454.5867236,0.24899697265624998,-0.1149216796875,9.968258612060547,0.3662109375,0.1220703125,0.06103515625
1781146454.5907235,0.2214636535644531,-0.08140285644531249,9.94072529296875,0.0,0.30517578125,-0.18310546875
1781146454.5947235,0.23223756103515625,-0.09816226806640624,9.961076007080077,0.18310546875,-0.1220703125,-0.18310546875
1781146454.5987234,0.23104046020507812,-0.11851298217773437,9.95389340209961,-0.18310546875,0.30517578125,-0.244140625
1781146454.6027234,0.21308394775390624,-0.12210428466796874,9.949104998779296,-0.18310546875,0.244140625,0.0
1781146454.6067095,0.22744915771484372,-0.1005564697265625,9.967061511230469,0.0,0.1220703125,-0.06103515625
1781146454.6107094,0.21308394775390624,-0.11611878051757812,9.97783541870117,-0.06103515625,0.244140625,-0.244140625
1781146454.6147094,0.1927332336425781,-0.11851298217773437,9.974244116210937,-0.18310546875,0.1220703125,-0.244140625
1781146454.6187093,0.19153613281249998,-0.10893617553710937,9.970652813720703,0.1220703125,-0.1220703125,-0.06103515625
1781146454.6227093,0.21188684692382811,-0.09935936889648436,9.968258612060547,-0.244140625,0.0,-0.18310546875
1781146454.6267092,0.229843359375,-0.11133037719726561,9.95987890625,-0.06103515625,-0.18310546875,0.1220703125
1781146454.6307092,0.2166752502441406,-0.11731588134765625,9.97184991455078,-0.1220703125,-0.30517578125,0.1220703125
1781146454.6347091,0.21068974609375,-0.10773907470703124,9.95389340209961,0.0,-0.244140625,-0.1220703125
1781146454.638709,0.22744915771484372,-0.1149216796875,9.943119494628906,-0.1220703125,-0.18310546875,-0.06103515625
1781146454.642709,0.25258827514648435,-0.12090718383789062,9.950302099609374,-0.06103515625,-0.06103515625,-0.244140625
1781146454.646709,0.2537853759765625,-0.08738836059570312,9.952696301269532,0.0,0.06103515625,-0.06103515625
1781146454.650709,0.2549824768066406,-0.1149216796875,9.935936889648437,-0.244140625,0.0,-0.06103515625
1781146454.6547089,0.24061726684570311,-0.11611878051757812,9.937133990478515,-0.1220703125,0.0,-0.1220703125
1781146454.6587088,0.25258827514648435,-0.13646949462890623,9.957484704589843,-0.244140625,0.0,-0.18310546875
1781146454.6627088,0.22744915771484372,-0.15442600708007811,9.94671079711914,-0.06103515625,0.3662109375,-0.06103515625
1781146454.6667087,0.24660277099609373,-0.143652099609375,9.952696301269532,0.06103515625,0.06103515625,0.244140625
1781146454.6707087,0.23582886352539062,-0.13646949462890623,9.98501802368164,0.0,0.18310546875,0.1220703125
1781146454.6747086,0.2454056701660156,-0.13766659545898435,9.962273107910155,0.18310546875,-0.06103515625,-0.1220703125
1781146454.6787086,0.24181436767578124,-0.12808978881835936,9.97783541870117,0.18310546875,0.30517578125,0.06103515625
1781146454.6827085,0.229843359375,-0.11133037719726561,9.97903251953125,0.1220703125,0.30517578125,-0.1220703125
1781146454.6867085,0.24061726684570311,-0.06943184814453125,9.956287603759765,0.30517578125,0.1220703125,0.0
1781146454.6907084,0.23582886352539062,-0.10893617553710937,9.95389340209961,0.1220703125,0.1220703125,0.18310546875
1781146454.6947083,0.2262520568847656,-0.07422025146484375,9.937133990478515,0.244140625,0.42724609375,0.0
1781146454.6987083,0.22744915771484372,-0.09217676391601562,9.955090502929687,0.48828125,0.30517578125,0.244140625
1781146454.7027082,0.20949264526367187,-0.06344634399414062,9.947907897949218,-0.18310546875,0.244140625,0.0
1781146454.7067082,0.2262520568847656,-0.051475335693359374,9.952696301269532,-0.18310546875,0.30517578125,-0.06103515625
1781146454.7107081,0.24779987182617186,-0.08738836059570312,9.968258612060547,-0.18310546875,0.18310546875,0.0
1781146454.714708,0.19153613281249998,-0.1149216796875,9.962273107910155,0.06103515625,0.18310546875,-0.18310546875
1781146454.718708,0.20231004028320312,-0.10295067138671875,9.991003527832031,0.0,0.06103515625,-0.244140625
1781146454.722708,0.1879448303222656,-0.11731588134765625,9.975441217041014,0.06103515625,0.18310546875,-0.18310546875
1781146454.726708,0.20709844360351562,-0.1149216796875,9.962273107910155,0.06103515625,0.0,-0.06103515625
1781146454.730708,0.20470424194335937,-0.1005564697265625,9.964667309570311,-0.1220703125,-0.06103515625,-0.30517578125
1781146454.7347078,0.201112939453125,-0.09816226806640624,9.97184991455078,0.06103515625,-0.48828125,-0.244140625
1781146454.7387078,0.19512743530273435,-0.09935936889648436,9.96586441040039,-0.18310546875,-0.1220703125,-0.06103515625
1781146454.7427077,0.21787235107421873,-0.06703764648437499,9.94671079711914,-0.06103515625,-0.3662109375,-0.30517578125
1781146454.7467077,0.22744915771484372,-0.055066638183593745,9.94671079711914,-0.18310546875,-0.30517578125,-0.1220703125
1781146454.7507076,0.2537853759765625,-0.076614453125,9.937133990478515,-0.244140625,-0.244140625,-0.18310546875
1781146454.7547076,0.2753331909179687,-0.11133037719726561,9.94072529296875,-0.3662109375,0.0,-0.30517578125
1781146454.7587075,0.2549824768066406,-0.10893617553710937,9.969455712890625,0.06103515625,-0.06103515625,0.0
1781146454.7627075,0.2549824768066406,-0.10654197387695312,9.976638317871092,-0.30517578125,0.1220703125,-0.244140625
1781146454.7667074,0.25139117431640623,-0.11851298217773437,9.957484704589843,-0.06103515625,0.0,-0.1220703125
1781146454.7707074,0.24301146850585936,-0.1304839904785156,9.944316595458984,0.1220703125,0.1220703125,-0.244140625
1781146454.7747073,0.24061726684570311,-0.1304839904785156,9.955090502929687,0.1220703125,0.30517578125,0.0
1781146454.7787073,0.2454056701660156,-0.11133037719726561,9.955090502929687,0.0,0.18310546875,-0.1220703125
1781146454.7827072,0.24061726684570311,-0.11611878051757812,9.956287603759765,0.3662109375,0.1220703125,-0.18310546875
1781146454.7867072,0.21308394775390624,-0.086191259765625,9.952696301269532,0.06103515625,0.18310546875,-0.1220703125
1781146454.790707,0.22505495605468748,-0.06943184814453125,9.949104998779296,0.1220703125,0.0,-0.1220703125
1781146454.794707,0.22266075439453123,-0.06344634399414062,9.944316595458984,0.0,0.244140625,0.0
1781146454.798707,0.229843359375,-0.07900865478515624,9.952696301269532,0.0,0.0,0.1220703125
1781146454.802707,0.20231004028320312,-0.12569558715820311,9.956287603759765,-0.3662109375,0.06103515625,0.1220703125
1781146454.806707,0.21308394775390624,-0.1149216796875,9.956287603759765,-0.30517578125,0.0,-0.06103515625
1781146454.8107069,0.22744915771484372,-0.143652099609375,9.976638317871092,0.0,0.244140625,-0.18310546875
1781146454.8147068,0.21068974609375,-0.15562310791015624,9.957484704589843,0.30517578125,-0.1220703125,-0.06103515625
1781146454.8187068,0.23104046020507812,-0.15203180541992187,9.976638317871092,0.06103515625,-0.1220703125,-0.18310546875
1781146454.8227067,0.2454056701660156,-0.14484920043945312,9.952696301269532,0.48828125,-0.06103515625,-0.18310546875
1781146454.8267066,0.23822306518554687,-0.12330138549804687,9.956287603759765,0.3662109375,-0.18310546875,-0.1220703125
1781146454.8307066,0.21906945190429686,-0.11851298217773437,9.951499200439452,0.18310546875,0.0,-0.54931640625
1781146454.8347065,0.23702596435546874,-0.07900865478515624,9.958681805419921,0.18310546875,-0.06103515625,-0.244140625
1781146454.8387065,0.24301146850585936,-0.08020575561523437,9.941922393798828,0.18310546875,0.06103515625,-0.18310546875
1781146454.8427064,0.24181436767578124,-0.07781155395507812,9.952696301269532,-0.1220703125,0.244140625,0.18310546875
1781146454.8467064,0.24061726684570311,-0.08020575561523437,9.95389340209961,-0.1220703125,0.244140625,0.06103515625
1781146454.8507063,0.22026655273437498,-0.09217676391601562,9.956287603759765,-0.18310546875,0.18310546875,0.1220703125
1781146454.8547063,0.25258827514648435,-0.10654197387695312,9.967061511230469,-0.18310546875,0.1220703125,-0.06103515625
1781146454.8587062,0.23582886352539062,-0.12330138549804687,9.983820922851562,0.0,0.1220703125,0.18310546875
1781146454.8627062,0.23822306518554687,-0.1304839904785156,9.969455712890625,-0.18310546875,0.30517578125,0.0
1781146454.8666744,0.2454056701660156,-0.14006079711914063,9.975441217041014,0.18310546875,0.1220703125,0.0
1781146454.8706727,0.25139117431640623,-0.13407529296874998,9.96586441040039,0.244140625,0.18310546875,0.06103515625
1781146454.8746727,0.2166752502441406,-0.105344873046875,9.968258612060547,0.18310546875,0.06103515625,-0.30517578125
1781146454.8786726,0.21428104858398436,-0.09337386474609374,9.957484704589843,0.18310546875,-0.06103515625,-0.30517578125
1781146454.8826725,0.20949264526367187,-0.07781155395507812,9.95389340209961,0.1220703125,-0.18310546875,-0.244140625
1781146454.8866725,0.23343466186523437,-0.06703764648437499,9.958681805419921,0.30517578125,0.06103515625,-0.1220703125
1781146454.8906724,0.22744915771484372,-0.033518823242187495,9.961076007080077,-0.1220703125,0.244140625,-0.06103515625
1781146454.8946724,0.24301146850585936,-0.04908113403320312,9.952696301269532,-0.06103515625,0.06103515625,0.0
1781146454.8986723,0.23582886352539062,-0.06344634399414062,9.935936889648437,-0.30517578125,-0.06103515625,-0.06103515625
1781146454.9026723,0.24301146850585936,-0.10295067138671875,9.956287603759765,-0.3662109375,0.244140625,0.06103515625
1781146454.9066722,0.229843359375,-0.1149216796875,9.94671079711914,-0.1220703125,0.1220703125,0.06103515625
1781146454.9106722,0.2549824768066406,-0.13168109130859373,9.943119494628906,0.0,-0.1220703125,-0.244140625
1781146454.9146721,0.2501940734863281,-0.14006079711914063,9.929951385498047,-0.1220703125,0.0,-0.06103515625
1781146454.918672,0.2214636535644531,-0.1292868896484375,9.968258612060547,0.30517578125,0.0,-0.244140625
1781146454.922672,0.21428104858398436,-0.08499415893554688,9.952696301269532,0.42724609375,0.18310546875,-0.1220703125
1781146454.926672,0.22744915771484372,-0.10175357055664062,9.920374578857421,0.30517578125,0.06103515625,0.0
1781146454.930672,0.2154781494140625,-0.06703764648437499,9.917980377197265,-0.1220703125,0.244140625,-0.18310546875
1781146454.9346719,0.22505495605468748,-0.07302315063476562,9.952696301269532,-0.18310546875,0.18310546875,-0.18310546875
1781146454.9386718,0.24660277099609373,-0.09457096557617187,9.92755718383789,-0.3662109375,0.0,0.06103515625
1781146454.9426718,0.22744915771484372,-0.14125789794921875,9.952696301269532,-0.30517578125,0.06103515625,0.06103515625
1781146454.9466717,0.2166752502441406,-0.16519991455078123,9.97903251953125,-0.06103515625,0.06103515625,-0.06103515625
1781146454.9506717,0.2346317626953125,-0.17118541870117188,9.969455712890625,-0.1220703125,-0.1220703125,0.0
1781146454.9546716,0.2442085693359375,-0.15682020874023436,9.967061511230469,-0.1220703125,-0.18310546875,0.18310546875
1781146454.9586716,0.24061726684570311,-0.15203180541992187,9.973047015380859,0.06103515625,0.0,-0.42724609375
1781146454.9626715,0.2597708801269531,-0.12569558715820311,9.969455712890625,0.30517578125,-0.244140625,-0.18310546875
1781146454.9666715,0.2537853759765625,-0.12689268798828124,9.961076007080077,0.244140625,0.18310546875,-0.244140625
1781146454.9706714,0.20949264526367187,-0.09696516723632811,9.956287603759765,-0.244140625,-0.1220703125,-0.1220703125
1781146454.9746714,0.25139117431640623,-0.062249243164062495,9.949104998779296,-0.18310546875,-0.06103515625,-0.3662109375
1781146454.9786713,0.2561795776367187,-0.051475335693359374,9.955090502929687,0.0,-0.1220703125,-0.06103515625
1781146454.9826713,0.22266075439453123,-0.06105214233398437,9.935936889648437,-0.18310546875,-0.1220703125,-0.18310546875
1781146454.9866712,0.2262520568847656,-0.08379705810546874,9.941922393798828,-0.30517578125,0.06103515625,0.18310546875
1781146454.9906712,0.22266075439453123,-0.07781155395507812,9.945513696289062,-0.18310546875,0.244140625,0.1220703125
1781146454.994671,0.21428104858398436,-0.11731588134765625,9.967061511230469,-0.06103515625,0.30517578125,0.1220703125
1781146454.998671,0.2166752502441406,-0.11372457885742186,9.958681805419921,0.06103515625,0.1220703125,0.06103515625
1781146455.002671,0.239420166015625,-0.15203180541992187,9.974244116210937,-0.06103515625,-0.06103515625,-0.1220703125
1781146455.006671,0.22744915771484372,-0.1197100830078125,9.968258612060547,0.0,0.0,-0.06103515625
1781146455.010671,0.22744915771484372,-0.09337386474609374,9.961076007080077,0.1220703125,-0.18310546875,0.06103515625
1781146455.0146708,0.229843359375,-0.0718260498046875,9.96586441040039,0.1220703125,-0.244140625,-0.1220703125
1781146455.0186708,0.2442085693359375,-0.058657940673828124,9.94671079711914,0.1220703125,-0.06103515625,-0.30517578125
1781146455.0226707,0.22026655273437498,-0.062249243164062495,9.949104998779296,-0.18310546875,0.06103515625,-0.1220703125
1781146455.0266707,0.21068974609375,-0.0718260498046875,9.957484704589843,-0.30517578125,0.18310546875,-0.3662109375
1781146455.0306706,0.239420166015625,-0.06703764648437499,9.947907897949218,-0.18310546875,-0.06103515625,-0.18310546875
1781146455.0346706,0.19393033447265623,-0.09696516723632811,9.961076007080077,-0.42724609375,-0.1220703125,-0.18310546875
1781146455.0386705,0.22505495605468748,-0.09217676391601562,9.949104998779296,-0.18310546875,0.1220703125,-0.1220703125
1781146455.0426705,0.22505495605468748,-0.15442600708007811,9.961076007080077,-0.1220703125,0.0,-0.244140625
1781146455.0466704,0.19512743530273435,-0.16759411621093748,9.986215124511718,-0.1220703125,0.0,-0.30517578125
1781146455.0506704,0.21068974609375,-0.17477672119140625,9.952696301269532,0.18310546875,-0.18310546875,-0.1220703125
1781146455.0546703,0.2154781494140625,-0.1640028137207031,9.970652813720703,0.18310546875,0.0,-0.1220703125
1781146455.0586703,0.23223756103515625,-0.14006079711914063,9.957484704589843,0.1220703125,-0.1220703125,-0.18310546875
1781146455.0626702,0.24899697265624998,-0.14245499877929688,9.964667309570311,0.18310546875,-0.06103515625,-0.244140625
1781146455.0666702,0.22505495605468748,-0.12449848632812499,9.94671079711914,0.1220703125,0.06103515625,-0.06103515625
1781146455.0706701,0.23702596435546874,-0.09576806640624999,9.949104998779296,0.18310546875,0.1220703125,-0.18310546875
1781146455.07467,0.229843359375,-0.09337386474609374,9.941922393798828,0.0,-0.06103515625,-0.06103515625
1781146455.078651,0.2537853759765625,-0.0718260498046875,9.94072529296875,0.0,0.3662109375,0.06103515625
1781146455.082651,0.25258827514648435,-0.09696516723632811,9.935936889648437,-0.06103515625,0.42724609375,0.1220703125
1781146455.0866508,0.21906945190429686,-0.11252747802734374,9.961076007080077,-0.244140625,0.30517578125,-0.06103515625
1781146455.0906508,0.24061726684570311,-0.13646949462890623,9.963470208740233,-0.1220703125,0.244140625,-0.06103515625
1781146455.0946507,0.22744915771484372,-0.10773907470703124,9.97903251953125,0.0,0.244140625,-0.1220703125
1781146455.0986507,0.21308394775390624,-0.11851298217773437,9.969455712890625,0.244140625,0.06103515625,0.0
1781146455.1026506,0.19033903198242186,-0.12449848632812499,9.969455712890625,0.06103515625,0.18310546875,-0.06103515625
1781146455.1066506,0.21787235107421873,-0.1197100830078125,9.949104998779296,0.18310546875,-0.244140625,-0.06103515625
1781146455.1106505,0.19991583862304688,-0.11013327636718749,9.958681805419921,0.0,-0.18310546875,-0.1220703125
1781146455.1146505,0.22505495605468748,-0.08020575561523437,9.97903251953125,0.1220703125,-0.18310546875,-0.1220703125
1781146455.1186504,0.25139117431640623,-0.06584054565429687,9.976638317871092,0.0,-0.244140625,-0.06103515625
1781146455.1226504,0.20709844360351562,-0.06823474731445311,9.962273107910155,0.06103515625,-0.1220703125,0.0
1781146455.1266503,0.2262520568847656,-0.062249243164062495,9.963470208740233,-0.1220703125,0.06103515625,-0.18310546875
1781146455.1306503,0.2597708801269531,-0.09457096557617187,9.964667309570311,-0.244140625,0.0,0.06103515625
1781146455.1346502,0.239420166015625,-0.13766659545898435,9.935936889648437,0.0,0.0,0.0
1781146455.1386502,0.23702596435546874,-0.12449848632812499,9.955090502929687,0.0,0.06103515625,-0.1220703125
1781146455.1426501,0.23702596435546874,-0.1292868896484375,9.956287603759765,0.06103515625,0.18310546875,-0.06103515625
1781146455.1466386,0.2262520568847656,-0.13646949462890623,9.938331091308592,-0.06103515625,0.1220703125,-0.18310546875
1781146455.1506386,0.22505495605468748,-0.1352723937988281,9.949104998779296,-0.06103515625,0.06103515625,-0.06103515625
1781146455.1545973,0.24301146850585936,-0.1292868896484375,9.945513696289062,0.06103515625,0.42724609375,-0.1220703125
1781146455.1585972,0.23104046020507812,-0.09816226806640624,9.962273107910155,0.1220703125,0.06103515625,-0.244140625
1781146455.1625972,0.2166752502441406,-0.09935936889648436,9.967061511230469,-0.06103515625,0.244140625,0.1220703125
1781146455.1665971,0.201112939453125,-0.09696516723632811,9.938331091308592,0.18310546875,0.06103515625,0.0
1781146455.170597,0.2346317626953125,-0.11013327636718749,9.945513696289062,-0.06103515625,0.1220703125,0.06103515625
1781146455.174597,0.2214636535644531,-0.086191259765625,9.967061511230469,-0.06103515625,-0.18310546875,-0.06103515625
1781146455.178597,0.201112939453125,-0.1149216796875,9.969455712890625,-0.06103515625,0.06103515625,-0.1220703125
1781146455.182597,0.23223756103515625,-0.09457096557617187,9.975441217041014,0.0,0.0,0.1220703125
1781146455.1865969,0.22744915771484372,-0.12689268798828124,9.986215124511718,-0.06103515625,-0.18310546875,-0.30517578125
1781146455.1905968,0.21068974609375,-0.09576806640624999,9.955090502929687,-0.1220703125,0.0,-0.18310546875
1781146455.1945968,0.2059013427734375,-0.11252747802734374,9.961076007080077,0.06103515625,-0.1220703125,-0.42724609375
1781146455.1985967,0.22744915771484372,-0.11133037719726561,9.937133990478515,-0.18310546875,-0.18310546875,-0.244140625
1781146455.2025967,0.19991583862304688,-0.1292868896484375,9.941922393798828,-0.06103515625,-0.1220703125,-0.42724609375
1781146455.2065966,0.21068974609375,-0.12569558715820311,9.955090502929687,-0.06103515625,-0.1220703125,-0.06103515625
1781146455.2105966,0.22744915771484372,-0.09935936889648436,9.951499200439452,-0.1220703125,-0.18310546875,-0.30517578125
1781146455.2145965,0.22744915771484372,-0.10654197387695312,9.961076007080077,-0.06103515625,-0.1220703125,-0.3662109375
1781146455.2185965,0.2454056701660156,-0.105344873046875,9.955090502929687,-0.244140625,-0.06103515625,-0.18310546875
1781146455.2225964,0.239420166015625,-0.09457096557617187,9.952696301269532,-0.30517578125,-0.244140625,0.1220703125
1781146455.2265964,0.2442085693359375,-0.09217676391601562,9.95987890625,-0.3662109375,0.06103515625,0.06103515625
1781146455.2305963,0.2346317626953125,-0.12689268798828124,9.963470208740233,-0.30517578125,0.0,0.06103515625
1781146455.2345963,0.229843359375,-0.12569558715820311,9.941922393798828,-0.18310546875,0.18310546875,-0.06103515625
1781146455.2385962,0.24779987182617186,-0.15442600708007811,9.938331091308592,0.244140625,0.18310546875,0.06103515625
1781146455.2425961,0.25139117431640623,-0.1484405029296875,9.957484704589843,0.18310546875,0.06103515625,-0.06103515625
1781146455.246596,0.22385785522460935,-0.15083470458984374,9.94671079711914,0.1220703125,0.1220703125,-0.3662109375
1781146455.250596,0.20949264526367187,-0.14006079711914063,9.962273107910155,0.1220703125,0.0,-0.1220703125
1781146455.254596,0.23582886352539062,-0.1197100830078125,9.950302099609374,0.30517578125,-0.1220703125,-0.3662109375
1781146455.258596,0.229843359375,-0.076614453125,9.962273107910155,0.0,0.1220703125,-0.1220703125
1781146455.262596,0.23582886352539062,-0.09457096557617187,9.964667309570311,-0.1220703125,-0.06103515625,-0.1220703125
1781146455.2665958,0.22744915771484372,-0.09816226806640624,9.967061511230469,-0.18310546875,0.06103515625,0.06103515625
1781146455.2705958,0.22385785522460935,-0.10414777221679687,9.968258612060547,-0.244140625,0.1220703125,-0.18310546875
1781146455.2745957,0.22744915771484372,-0.10773907470703124,9.945513696289062,-0.244140625,0.0,0.06103515625
1781146455.2785957,0.2346317626953125,-0.12210428466796874,9.96586441040039,-0.06103515625,-0.1220703125,-0.06103515625
1781146455.2825956,0.21906945190429686,-0.11013327636718749,9.964667309570311,-0.1220703125,0.06103515625,-0.3662109375
1781146455.2865956,0.23822306518554687,-0.14245499877929688,9.962273107910155,0.18310546875,-0.1220703125,-0.06103515625
1781146455.2905955,0.22385785522460935,-0.12449848632812499,9.95987890625,0.0,0.0,-0.244140625
1781146455.2945955,0.2214636535644531,-0.1149216796875,9.957484704589843,0.1220703125,-0.18310546875,-0.06103515625
1781146455.2985954,0.22744915771484372,-0.10654197387695312,9.957484704589843,-0.244140625,-0.1220703125,-0.3662109375
1781146455.3025954,0.2214636535644531,-0.09337386474609374,9.974244116210937,0.0,0.0,-0.3662109375
1781146455.3065953,0.23582886352539062,-0.1197100830078125,9.950302099609374,0.0,-0.244140625,-0.30517578125
1781146455.3105953,0.2549824768066406,-0.08020575561523437,9.96586441040039,-0.18310546875,0.0,-0.1220703125
1781146455.3145952,0.22026655273437498,-0.07781155395507812,9.963470208740233,-0.3662109375,0.18310546875,-0.1220703125
1781146455.3185952,0.2561795776367187,-0.07900865478515624,9.952696301269532,-0.18310546875,0.1220703125,-0.06103515625
1781146455.3225951,0.2454056701660156,-0.09457096557617187,9.97903251953125,-0.30517578125,0.1220703125,0.1220703125
1781146455.326595,0.21188684692382811,-0.12569558715820311,9.949104998779296,-0.244140625,0.42724609375,0.0
1781146455.330595,0.19393033447265623,-0.13168109130859373,9.94671079711914,0.0,0.06103515625,-0.18310546875
1781146455.334595,0.239420166015625,-0.12569558715820311,9.949104998779296,-0.1220703125,0.06103515625,-0.244140625
1781146455.338595,0.2214636535644531,-0.11013327636718749,9.956287603759765,-0.06103515625,0.0,-0.30517578125
1781146455.3425949,0.229843359375,-0.10654197387695312,9.969455712890625,0.18310546875,0.06103515625,-0.42724609375
1781146455.3465948,0.2346317626953125,-0.1005564697265625,9.970652813720703,0.06103515625,0.1220703125,-0.06103515625
1781146455.3505948,0.21308394775390624,-0.10654197387695312,9.949104998779296,-0.244140625,-0.244140625,-0.18310546875
1781146455.3545947,0.22505495605468748,-0.08978256225585937,9.95389340209961,0.06103515625,0.0,-0.06103515625
1781146455.3585947,0.239420166015625,-0.11731588134765625,9.949104998779296,-0.244140625,-0.06103515625,-0.06103515625
1781146455.3625946,0.23223756103515625,-0.12449848632812499,9.963470208740233,-0.42724609375,0.1220703125,-0.1220703125
1781146455.3665946,0.22026655273437498,-0.0909796630859375,9.963470208740233,-0.18310546875,-0.18310546875,-0.1220703125
1781146455.3705835,0.229843359375,-0.13766659545898435,9.961076007080077,-0.244140625,-0.18310546875,-0.1220703125
1781146455.3745835,0.2262520568847656,-0.14006079711914063,9.929951385498047,-0.18310546875,0.244140625,-0.30517578125
1781146455.3785834,0.22026655273437498,-0.15322890625,9.95389340209961,0.06103515625,-0.3662109375,-0.30517578125
1781146455.3825834,0.2442085693359375,-0.14963760375976562,9.967061511230469,0.06103515625,-0.06103515625,-0.244140625
1781146455.3865833,0.22266075439453123,-0.13766659545898435,9.951499200439452,0.244140625,0.06103515625,-0.06103515625
1781146455.3905833,0.25258827514648435,-0.1304839904785156,9.949104998779296,0.244140625,-0.1220703125,0.0
1781146455.3945832,0.239420166015625,-0.1197100830078125,9.934739788818359,0.06103515625,0.06103515625,0.0
1781146455.3985832,0.229843359375,-0.076614453125,9.95389340209961,0.1220703125,0.06103515625,-0.244140625
1781146455.4025831,0.23104046020507812,-0.06464344482421874,9.952696301269532,-0.1220703125,0.18310546875,-0.1220703125
1781146455.406555,0.2166752502441406,-0.07900865478515624,9.935936889648437,0.0,0.30517578125,-0.1220703125
1781146455.410555,0.20829554443359374,-0.06464344482421874,9.952696301269532,-0.18310546875,0.18310546875,0.06103515625
1781146455.4145548,0.24181436767578124,-0.08379705810546874,9.944316595458984,-0.06103515625,0.1220703125,0.06103515625
1781146455.4185548,0.20350714111328125,-0.09457096557617187,9.957484704589843,-0.18310546875,0.1220703125,0.244140625
1781146455.4225547,0.23223756103515625,-0.12449848632812499,9.980229620361328,-0.06103515625,0.0,-0.244140625
1781146455.4265547,0.20829554443359374,-0.12689268798828124,9.97903251953125,-0.244140625,0.06103515625,-0.1220703125
1781146455.4305546,0.2059013427734375,-0.11731588134765625,9.982623822021484,-0.06103515625,-0.244140625,-0.18310546875
1781146455.4345546,0.21068974609375,-0.11372457885742186,9.957484704589843,0.06103515625,-0.3662109375,-0.1220703125
1781146455.4385545,0.23223756103515625,-0.1352723937988281,9.958681805419921,0.244140625,-0.18310546875,0.0
1781146455.4425545,0.22505495605468748,-0.12090718383789062,9.96586441040039,-0.1220703125,-0.244140625,-0.1220703125
1781146455.44652,0.2442085693359375,-0.08020575561523437,9.934739788818359,-0.06103515625,-0.1220703125,-0.244140625
1781146455.45052,0.23582886352539062,-0.11252747802734374,9.95987890625,0.0,-0.18310546875,0.06103515625
1781146455.45452,0.2454056701660156,-0.0909796630859375,9.944316595458984,-0.06103515625,0.06103515625,0.06103515625
1781146455.45852,0.23104046020507812,-0.07541735229492187,9.944316595458984,-0.18310546875,0.0,-0.30517578125
1781146455.46252,0.21906945190429686,-0.1149216796875,9.934739788818359,-0.1220703125,0.06103515625,-0.18310546875
1781146455.4665198,0.2549824768066406,-0.12569558715820311,9.958681805419921,-0.1220703125,0.244140625,-0.18310546875
1781146455.4704998,0.23223756103515625,-0.1352723937988281,9.952696301269532,0.06103515625,0.18310546875,-0.18310546875
1781146455.4743688,0.2454056701660156,-0.1197100830078125,9.957484704589843,-0.06103515625,0.1220703125,0.0
1781146455.4783688,0.22744915771484372,-0.14604630126953125,9.951499200439452,-0.244140625,-0.06103515625,-0.244140625
1781146455.482363,0.23702596435546874,-0.14125789794921875,9.95389340209961,0.06103515625,0.18310546875,0.0
1781146455.486363,0.21068974609375,-0.11731588134765625,9.980229620361328,0.06103515625,0.06103515625,-0.18310546875
1781146455.490363,0.21188684692382811,-0.10654197387695312,9.962273107910155,0.0,0.06103515625,-0.30517578125
1781146455.4943628,0.24181436767578124,-0.09576806640624999,9.951499200439452,0.0,0.0,0.06103515625
1781146455.4983628,0.22505495605468748,-0.10175357055664062,9.949104998779296,0.06103515625,0.0,-0.18310546875
1781146455.5023627,0.22744915771484372,-0.09935936889648436,9.931148486328125,0.244140625,-0.1220703125,-0.06103515625
1781146455.5063376,0.2537853759765625,-0.09217676391601562,9.95987890625,0.06103515625,0.1220703125,-0.1220703125
1781146455.5103376,0.23223756103515625,-0.10175357055664062,9.962273107910155,0.06103515625,-0.1220703125,-0.06103515625
1781146455.5143375,0.24061726684570311,-0.08858546142578125,9.94671079711914,-0.1220703125,0.18310546875,-0.06103515625
1781146455.5183375,0.2454056701660156,-0.12330138549804687,9.94671079711914,-0.06103515625,0.3662109375,-0.244140625
1781146455.5223374,0.23223756103515625,-0.08978256225585937,9.951499200439452,-0.06103515625,0.06103515625,0.1220703125
1781146455.5263374,0.2442085693359375,-0.11851298217773437,9.963470208740233,0.0,0.06103515625,-0.06103515625
1781146455.5303373,0.23223756103515625,-0.14604630126953125,9.958681805419921,-0.1220703125,-0.06103515625,-0.244140625
1781146455.5343373,0.26336218261718747,-0.10773907470703124,9.951499200439452,0.06103515625,-0.06103515625,-0.244140625
1781146455.5383372,0.22744915771484372,-0.07302315063476562,9.95389340209961,0.0,0.18310546875,-0.06103515625
1781146455.5423372,0.24779987182617186,-0.09337386474609374,9.95987890625,0.1220703125,-0.06103515625,0.0
1781146455.5463371,0.22505495605468748,-0.11013327636718749,9.957484704589843,-0.18310546875,0.1220703125,0.1220703125
1781146455.550337,0.23343466186523437,-0.086191259765625,9.967061511230469,0.18310546875,-0.06103515625,-0.1220703125
1781146455.554337,0.21428104858398436,-0.11133037719726561,9.945513696289062,0.1220703125,0.1220703125,0.06103515625
1781146455.558337,0.23343466186523437,-0.11851298217773437,9.961076007080077,0.0,-0.06103515625,0.18310546875
1781146455.562337,0.23822306518554687,-0.1149216796875,9.957484704589843,-0.06103515625,0.18310546875,0.1220703125
1781146455.5663369,0.2549824768066406,-0.09696516723632811,9.938331091308592,0.06103515625,-0.06103515625,0.06103515625
1781146455.5703368,0.23223756103515625,-0.09217676391601562,9.947907897949218,-0.06103515625,0.06103515625,0.06103515625
1781146455.5743368,0.25139117431640623,-0.09816226806640624,9.947907897949218,-0.18310546875,0.1220703125,0.06103515625
1781146455.5783367,0.23104046020507812,-0.12808978881835936,9.947907897949218,0.06103515625,0.244140625,-0.06103515625
1781146455.5823367,0.239420166015625,-0.14963760375976562,9.94671079711914,0.06103515625,0.0,-0.1220703125
1781146455.5863366,0.20709844360351562,-0.13168109130859373,9.970652813720703,-0.18310546875,-0.06103515625,-0.1220703125
1781146455.5903366,0.2346317626953125,-0.11611878051757812,9.949104998779296,0.1220703125,-0.1220703125,-0.30517578125
1781146455.5943365,0.23343466186523437,-0.105344873046875,9.958681805419921,-0.06103515625,0.0,-0.18310546875
1781146455.5983365,0.22266075439453123,-0.09217676391601562,9.951499200439452,-0.1220703125,0.06103515625,0.0
1781146455.6023364,0.2154781494140625,-0.10414777221679687,9.95389340209961,-0.06103515625,0.0,0.18310546875
1781146455.6063364,0.22505495605468748,-0.08259995727539061,9.97783541870117,0.0,0.06103515625,0.244140625
1781146455.6103363,0.239420166015625,-0.09576806640624999,9.963470208740233,-0.18310546875,0.1220703125,0.0
1781146455.6143363,0.25258827514648435,-0.12210428466796874,9.963470208740233,-0.1220703125,0.0,0.06103515625
1781146455.6183362,0.23822306518554687,-0.12210428466796874,9.973047015380859,0.06103515625,0.244140625,-0.06103515625
1781146455.6223361,0.22385785522460935,-0.09337386474609374,9.958681805419921,-0.244140625,-0.06103515625,-0.06103515625
1781146455.626336,0.24899697265624998,-0.10773907470703124,9.964667309570311,0.0,0.1220703125,-0.1220703125
1781146455.630336,0.23702596435546874,-0.10773907470703124,9.97184991455078,0.1220703125,0.06103515625,-0.18310546875
1781146455.634336,0.21787235107421873,-0.09816226806640624,9.95389340209961,0.06103515625,0.244140625,-0.18310546875
1781146455.638336,0.21308394775390624,-0.09457096557617187,9.964667309570311,-0.06103515625,0.1220703125,-0.06103515625
1781146455.642336,0.19871873779296872,-0.0718260498046875,9.973047015380859,-0.1220703125,0.244140625,-0.06103515625
1781146455.6463358,0.22026655273437498,-0.09217676391601562,9.952696301269532,-0.06103515625,0.1220703125,-0.1220703125
1781146455.6503358,0.22744915771484372,-0.09816226806640624,9.955090502929687,0.06103515625,0.0,-0.06103515625
1781146455.6543357,0.20829554443359374,-0.1197100830078125,9.949104998779296,0.0,-0.1220703125,0.0
1781146455.6583357,0.229843359375,-0.12449848632812499,9.944316595458984,-0.18310546875,0.0,-0.1220703125
1781146455.6623356,0.22744915771484372,-0.11611878051757812,9.95389340209961,0.06103515625,0.06103515625,-0.1220703125
1781146455.6663356,0.239420166015625,-0.11252747802734374,9.967061511230469,-0.06103515625,0.0,0.244140625
1781146455.6703355,0.23104046020507812,-0.11133037719726561,9.97184991455078,0.18310546875,-0.1220703125,0.0
1781146455.6743355,0.229843359375,-0.12330138549804687,9.976638317871092,0.0,0.0,-0.1220703125
1781146455.6783354,0.23822306518554687,-0.11372457885742186,9.973047015380859,-0.1220703125,0.30517578125,-0.1220703125
1781146455.6823354,0.24779987182617186,-0.143652099609375,9.961076007080077,-0.1220703125,-0.1220703125,0.0
1781146455.6863353,0.2346317626953125,-0.13766659545898435,9.951499200439452,0.06103515625,0.1220703125,-0.3662109375
1781146455.6903353,0.23343466186523437,-0.13407529296874998,9.950302099609374,-0.1220703125,0.06103515625,-0.1220703125
1781146455.6943352,0.239420166015625,-0.10175357055664062,9.945513696289062,0.0,0.06103515625,-0.18310546875
1781146455.6983352,0.22026655273437498,-0.08259995727539061,9.944316595458984,-0.1220703125,0.1220703125,-0.18310546875
1781146455.7023351,0.2501940734863281,-0.08499415893554688,9.947907897949218,-0.06103515625,-0.06103515625,-0.18310546875
1781146455.706335,0.24181436767578124,-0.09457096557617187,9.941922393798828,-0.06103515625,0.0,0.06103515625
1781146455.710335,0.229843359375,-0.09217676391601562,9.958681805419921,0.0,0.06103515625,-0.06103515625
1781146455.714335,0.19393033447265623,-0.11372457885742186,9.955090502929687,-0.1220703125,-0.06103515625,-0.18310546875
1781146455.718335,0.2597708801269531,-0.0909796630859375,9.961076007080077,0.06103515625,0.0,-0.30517578125
1781146455.7223349,0.239420166015625,-0.09696516723632811,9.950302099609374,-0.06103515625,0.06103515625,-0.18310546875
1781146455.7263348,0.22744915771484372,-0.11252747802734374,9.968258612060547,0.1220703125,0.06103515625,-0.06103515625
1781146455.7303348,0.23104046020507812,-0.1005564697265625,9.95987890625,0.18310546875,0.1220703125,-0.18310546875
1781146455.7343347,0.229843359375,-0.11731588134765625,9.964667309570311,0.0,0.1220703125,-0.06103515625
1781146455.7383347,0.21787235107421873,-0.09576806640624999,9.949104998779296,-0.06103515625,0.0,-0.06103515625
1781146455.7423346,0.2549824768066406,-0.105344873046875,9.952696301269532,-0.244140625,-0.1220703125,0.0
1781146455.7463346,0.2501940734863281,-0.11013327636718749,9.93952819213867,0.18310546875,-0.06103515625,-0.3662109375
1781146455.7503345,0.2214636535644531,-0.11252747802734374,9.949104998779296,-0.18310546875,-0.1220703125,0.0
1781146455.7543344,0.24301146850585936,-0.09696516723632811,9.955090502929687,0.1220703125,0.06103515625,-0.06103515625
1781146455.7583086,0.2214636535644531,-0.07781155395507812,9.952696301269532,0.06103515625,0.0,0.1220703125
1781146455.7622855,0.22744915771484372,-0.105344873046875,9.949104998779296,0.0,0.42724609375,0.1220703125
1781146455.766276,0.23223756103515625,-0.11013327636718749,9.952696301269532,0.06103515625,0.1220703125,0.18310546875
1781146455.7702758,0.22744915771484372,-0.10175357055664062,9.962273107910155,0.1220703125,0.1220703125,-0.06103515625
1781146455.7742758,0.23822306518554687,-0.12330138549804687,9.950302099609374,-0.1220703125,0.1220703125,-0.1220703125
1781146455.7782578,0.24181436767578124,-0.12449848632812499,9.963470208740233,0.06103515625,0.1220703125,0.18310546875
1781146455.7822578,0.22744915771484372,-0.10295067138671875,9.952696301269532,0.06103515625,0.18310546875,-0.1220703125
1781146455.7862577,0.2059013427734375,-0.09576806640624999,9.983820922851562,-0.06103515625,-0.06103515625,-0.3662109375
1781146455.7902577,0.18555062866210936,-0.10414777221679687,9.958681805419921,-0.06103515625,0.0,-0.30517578125
1781146455.7942576,0.20350714111328125,-0.08858546142578125,9.964667309570311,-0.18310546875,-0.06103515625,-0.30517578125
1781146455.7982576,0.19393033447265623,-0.10773907470703124,9.961076007080077,0.1220703125,0.18310546875,0.06103515625
1781146455.8022575,0.2262520568847656,-0.11611878051757812,9.964667309570311,-0.06103515625,-0.1220703125,-0.244140625
1781146455.8062575,0.23104046020507812,-0.10175357055664062,9.950302099609374,0.06103515625,-0.1220703125,-0.06103515625
1781146455.8102574,0.2454056701660156,-0.08499415893554688,9.96586441040039,0.1220703125,-0.18310546875,-0.1220703125
1781146455.8142574,0.2154781494140625,-0.11372457885742186,9.962273107910155,0.06103515625,-0.244140625,-0.1220703125
1781146455.8182573,0.22266075439453123,-0.12090718383789062,9.950302099609374,0.1220703125,-0.1220703125,-0.1220703125
1781146455.8222573,0.2597708801269531,-0.12808978881835936,9.93952819213867,0.0,0.06103515625,0.0
1781146455.8262572,0.22744915771484372,-0.1304839904785156,9.952696301269532,-0.06103515625,0.0,-0.1220703125
1781146455.8302572,0.21787235107421873,-0.11133037719726561,9.961076007080077,0.0,0.0,-0.30517578125
1781146455.8342571,0.229843359375,-0.11013327636718749,9.935936889648437,0.0,0.06103515625,-0.18310546875
1781146455.838257,0.23582886352539062,-0.12808978881835936,9.925162982177733,-0.244140625,0.30517578125,-0.244140625
1781146455.842257,0.23702596435546874,-0.1149216796875,9.964667309570311,-0.06103515625,0.1220703125,-0.244140625
1781146455.846257,0.229843359375,-0.1197100830078125,9.952696301269532,-0.06103515625,0.06103515625,-0.06103515625
1781146455.850257,0.21188684692382811,-0.08738836059570312,9.93952819213867,0.06103515625,0.18310546875,-0.244140625
1781146455.8542569,0.20829554443359374,-0.10175357055664062,9.957484704589843,0.06103515625,0.3662109375,-0.244140625
1781146455.8582568,0.23702596435546874,-0.11611878051757812,9.96586441040039,0.1220703125,0.1220703125,0.06103515625
1781146455.8622568,0.2454056701660156,-0.10654197387695312,9.967061511230469,0.30517578125,0.1220703125,0.0
1781146455.8662567,0.21308394775390624,-0.08738836059570312,9.975441217041014,0.18310546875,-0.1220703125,0.0
1781146455.8702567,0.22505495605468748,-0.10893617553710937,9.96586441040039,0.18310546875,-0.1220703125,-0.1220703125
1781146455.8742566,0.23582886352539062,-0.09935936889648436,9.98501802368164,-0.1220703125,-0.1220703125,-0.1220703125
1781146455.8782566,0.21428104858398436,-0.0909796630859375,9.945513696289062,-0.244140625,0.18310546875,-0.244140625
1781146455.8822565,0.25258827514648435,-0.11252747802734374,9.944316595458984,0.0,-0.06103515625,0.0
1781146455.8862565,0.2454056701660156,-0.09935936889648436,9.943119494628906,0.0,-0.244140625,-0.1220703125
1781146455.8902564,0.22505495605468748,-0.10773907470703124,9.957484704589843,-0.06103515625,0.0,-0.48828125
1781146455.8942564,0.2561795776367187,-0.12449848632812499,9.941922393798828,0.0,-0.06103515625,-0.48828125
1781146455.8982563,0.2442085693359375,-0.12210428466796874,9.947907897949218,-0.244140625,-0.06103515625,-0.06103515625
1781146455.9022563,0.22744915771484372,-0.09696516723632811,9.968258612060547,-0.1220703125,-0.06103515625,-0.30517578125
1781146455.9062562,0.2154781494140625,-0.11013327636718749,9.968258612060547,0.0,0.06103515625,-0.06103515625
1781146455.9102561,0.24660277099609373,-0.09816226806640624,9.94671079711914,-0.1220703125,0.06103515625,-0.06103515625
1781146455.914256,0.24301146850585936,-0.10414777221679687,9.958681805419921,-0.1220703125,0.30517578125,-0.06103515625
1781146455.918256,0.21787235107421873,-0.10893617553710937,9.96586441040039,-0.06103515625,0.06103515625,-0.06103515625
1781146455.922256,0.2262520568847656,-0.15203180541992187,9.967061511230469,-0.06103515625,0.1220703125,0.0
1781146455.926256,0.21308394775390624,-0.13168109130859373,9.97184991455078,0.06103515625,0.1220703125,0.18310546875
1781146455.930256,0.22744915771484372,-0.13646949462890623,9.963470208740233,0.1220703125,0.30517578125,0.0
1781146455.9342558,0.22744915771484372,-0.13407529296874998,9.941922393798828,0.18310546875,0.18310546875,-0.06103515625
1781146455.9382558,0.22505495605468748,-0.105344873046875,9.957484704589843,0.1220703125,0.1220703125,-0.06103515625
1781146455.9422557,0.2166752502441406,-0.08738836059570312,9.94072529296875,-0.1220703125,0.06103515625,-0.1220703125
1781146455.9462557,0.21068974609375,-0.0909796630859375,9.952696301269532,-0.1220703125,0.1220703125,-0.06103515625
1781146455.9502556,0.24899697265624998,-0.12330138549804687,9.967061511230469,-0.1220703125,0.30517578125,-0.06103515625
1781146455.9542556,0.21428104858398436,-0.086191259765625,9.969455712890625,0.0,0.18310546875,-0.244140625
1781146455.958248,0.2166752502441406,-0.10893617553710937,9.949104998779296,-0.06103515625,0.0,-0.244140625
1781146455.9622478,0.21188684692382811,-0.12449848632812499,9.962273107910155,-0.18310546875,-0.06103515625,-0.06103515625
1781146455.9662478,0.22505495605468748,-0.1005564697265625,9.95987890625,-0.18310546875,-0.1220703125,0.0
1781146455.9702477,0.2214636535644531,-0.09217676391601562,9.961076007080077,0.0,0.0,-0.1220703125
1781146455.9742477,0.229843359375,-0.12808978881835936,9.97184991455078,-0.06103515625,-0.06103515625,-0.244140625
1781146455.9782476,0.23343466186523437,-0.12330138549804687,9.957484704589843,-0.1220703125,0.0,-0.06103515625
1781146455.9822476,0.24061726684570311,-0.15083470458984374,9.956287603759765,-0.06103515625,0.0,-0.1220703125
1781146455.9862475,0.23582886352539062,-0.12210428466796874,9.937133990478515,-0.06103515625,-0.1220703125,-0.06103515625
1781146455.9902475,0.2597708801269531,-0.09816226806640624,9.93354268798828,0.06103515625,0.06103515625,-0.06103515625
1781146455.9942474,0.229843359375,-0.10295067138671875,9.94671079711914,-0.1220703125,0.244140625,-0.1220703125
1781146455.9982474,0.22266075439453123,-0.08499415893554688,9.949104998779296,0.0,0.0,-0.1220703125
1781146456.0022058,0.2262520568847656,-0.08499415893554688,9.94671079711914,-0.244140625,0.30517578125,-0.18310546875
1781146456.0062058,0.22385785522460935,-0.07781155395507812,9.955090502929687,0.18310546875,0.3662109375,-0.06103515625
1781146456.0102057,0.21906945190429686,-0.0909796630859375,9.967061511230469,-0.1220703125,0.3662109375,0.0
1781146456.0142057,0.23343466186523437,-0.10295067138671875,9.957484704589843,0.1220703125,0.1220703125,0.06103515625
1781146456.0182056,0.2059013427734375,-0.11252747802734374,9.956287603759765,0.06103515625,0.18310546875,-0.1220703125
1781146456.0222056,0.20709844360351562,-0.11372457885742186,9.969455712890625,-0.06103515625,-0.18310546875,0.06103515625
1781146456.0262055,0.20949264526367187,-0.1292868896484375,9.98501802368164,0.0,0.06103515625,0.18310546875
1781146456.0302055,0.2059013427734375,-0.09217676391601562,9.958681805419921,0.0,0.06103515625,0.06103515625
1781146456.0342054,0.2154781494140625,-0.1352723937988281,9.95389340209961,0.1220703125,-0.1220703125,0.0
1781146456.0381904,0.22266075439453123,-0.105344873046875,9.962273107910155,-0.1220703125,-0.18310546875,-0.18310546875
1781146456.0421903,0.23343466186523437,-0.09935936889648436,9.952696301269532,-0.1220703125,-0.06103515625,-0.30517578125
1781146456.0461903,0.2262520568847656,-0.08140285644531249,9.947907897949218,0.06103515625,0.0,-0.18310546875
1781146456.0501902,0.23822306518554687,-0.08738836059570312,9.952696301269532,-0.244140625,-0.1220703125,-0.244140625
1781146456.0541902,0.23223756103515625,-0.086191259765625,9.945513696289062,-0.1220703125,-0.1220703125,-0.06103515625
1781146456.05819,0.229843359375,-0.09696516723632811,9.949104998779296,-0.1220703125,-0.1220703125,0.0
1781146456.06219,0.21188684692382811,-0.12449848632812499,9.957484704589843,-0.1220703125,-0.244140625,0.0
1781146456.06619,0.21787235107421873,-0.10414777221679687,9.951499200439452,-0.06103515625,-0.06103515625,-0.06103515625
1781146456.07019,0.2214636535644531,-0.13407529296874998,9.96586441040039,-0.06103515625,0.1220703125,0.0
1781146456.07419,0.2154781494140625,-0.13287819213867186,9.968258612060547,-0.1220703125,0.244140625,-0.1220703125
1781146456.0781446,0.24181436767578124,-0.14963760375976562,9.94072529296875,0.244140625,-0.30517578125,0.1220703125
1781146456.0821445,0.21787235107421873,-0.14724340209960937,9.964667309570311,0.18310546875,-0.06103515625,0.06103515625
1781146456.0861332,0.22744915771484372,-0.1292868896484375,9.970652813720703,0.06103515625,0.0,-0.18310546875
1781146456.0901332,0.2214636535644531,-0.12090718383789062,9.95389340209961,0.06103515625,0.06103515625,-0.244140625
1781146456.0941331,0.24779987182617186,-0.10654197387695312,9.945513696289062,0.0,0.1220703125,-0.244140625
1781146456.098133,0.22744915771484372,-0.09696516723632811,9.968258612060547,0.0,0.1220703125,0.0
1781146456.102133,0.24660277099609373,-0.09337386474609374,9.962273107910155,-0.244140625,-0.244140625,-0.06103515625
1781146456.106133,0.24660277099609373,-0.09337386474609374,9.962273107910155,-0.244140625,-0.244140625,-0.06103515625
1781146456.110133,0.229843359375,-0.09935936889648436,9.949104998779296,-0.06103515625,0.1220703125,0.0
1781146456.114133,0.22266075439453123,-0.1197100830078125,9.96586441040039,-0.06103515625,0.0,-0.1220703125
1781146456.1180842,0.22266075439453123,-0.1197100830078125,9.96586441040039,-0.06103515625,0.0,-0.1220703125
1781146456.1220841,0.22385785522460935,-0.08259995727539061,9.968258612060547,-0.244140625,0.06103515625,-0.1220703125
1781146456.126084,0.22385785522460935,-0.08259995727539061,9.968258612060547,-0.244140625,0.06103515625,-0.1220703125
1781146456.130084,0.21308394775390624,-0.11611878051757812,9.95389340209961,0.06103515625,-0.1220703125,-0.30517578125
