timestamp,acc_x,acc_y,acc_z,gyro_x,gyro_y,gyro_z
1781600082.0605643,0.4513070129394531,-0.20949264526367187,9.919177478027343,0.91552734375,-0.244140625,0.6103515625
1781600082.0632956,0.4991910461425781,-0.2346317626953125,9.91438907470703,0.79345703125,0.30517578125,0.1220703125
1781600082.0672956,0.5530605834960938,-0.2166752502441406,9.866505041503906,1.0986328125,0.9765625,-0.1220703125
1781600082.0712955,0.51714755859375,-0.09576806640624999,9.823409411621093,1.0986328125,1.77001953125,-0.18310546875
1781600082.0752954,0.35673604736328124,0.00718260498046875,9.816226806640625,1.15966796875,2.8076171875,-0.54931640625
1781600082.0792954,0.15203180541992187,0.13407529296874998,9.746794958496093,1.46484375,4.150390625,-0.42724609375
1781600082.0832953,0.03591302490234375,0.229843359375,9.76235726928711,1.15966796875,5.126953125,-0.30517578125
1781600082.0872953,0.02154781494140625,0.3363853332519531,9.928754284667969,0.732421875,4.8828125,0.48828125
1781600082.0912952,0.05626373901367187,0.41419688720703124,10.0748005859375,0.06103515625,4.08935546875,1.28173828125
1781600082.0952952,0.0143652099609375,0.34715924072265625,10.12507882080078,-0.244140625,2.44140625,1.89208984375
1781600082.0992951,-0.06823474731445311,0.22505495605468748,10.171765753173828,-0.79345703125,0.54931640625,2.197265625
1781600082.103295,-0.17836802368164062,0.1197100830078125,10.210072979736328,-0.8544921875,-0.9765625,2.01416015625
1781600082.107295,-0.21787235107421873,0.0,10.129867224121092,-0.732421875,-2.44140625,0.8544921875
1781600082.111295,-0.1867477294921875,-0.044292730712890624,10.036493359375,0.06103515625,-3.11279296875,-0.42724609375
1781600082.115295,-0.07422025146484375,-0.0383072265625,10.008960040283203,0.244140625,-3.90625,-1.708984375
1781600082.119295,0.051475335693359374,0.07781155395507812,9.976638317871092,-0.06103515625,-4.21142578125,-2.74658203125
1781600082.1232948,0.14245499877929688,0.16160861206054686,9.952696301269532,-0.732421875,-5.06591796875,-3.2958984375
1781600082.1272948,0.181959326171875,0.2561795776367187,9.943119494628906,-1.5869140625,-4.8828125,-3.2958984375
1781600082.1312947,0.14484920043945312,0.30047230834960936,9.894038360595703,-2.3193359375,-4.638671875,-2.8076171875
1781600082.1352947,0.08259995727539061,0.24899697265624998,9.87009634399414,-2.86865234375,-3.96728515625,-2.44140625
1781600082.1392946,0.04668693237304687,0.14724340209960937,9.886855755615233,-2.8076171875,-3.0517578125,-1.64794921875
1781600082.1432946,0.00239420166015625,0.0047884033203125,9.896432562255859,-2.50244140625,-1.77001953125,-0.732421875
1781600082.1472945,0.00239420166015625,-0.10295067138671875,9.900023864746093,-1.708984375,-1.64794921875,0.244140625
1781600082.1512945,0.03591302490234375,-0.17118541870117188,9.926360083007811,-0.91552734375,-1.3427734375,1.0986328125
1781600082.1552944,0.05626373901367187,-0.2059013427734375,9.94671079711914,-0.244140625,-1.03759765625,2.0751953125
1781600082.1592944,0.12330138549804687,-0.18555062866210936,9.995791931152343,0.18310546875,-1.8310546875,2.5634765625
1781600082.1632943,0.15682020874023436,-0.17357962036132812,10.025719451904296,0.42724609375,-2.25830078125,2.9296875
1781600082.1672943,0.2657563842773437,-0.17477672119140625,10.028113653564452,0.06103515625,-2.8076171875,2.8076171875
1781600082.1712942,0.3220201232910156,-0.16280571289062498,10.001777435302733,-0.6103515625,-2.99072265625,1.953125
1781600082.1752942,0.3890577697753906,-0.15322890625,9.968258612060547,-0.67138671875,-3.23486328125,1.03759765625
1781600082.179294,0.42975919799804685,-0.15682020874023436,9.926360083007811,-1.220703125,-3.60107421875,-0.30517578125
1781600082.183294,0.46806642456054687,-0.181959326171875,9.89523546142578,-1.28173828125,-3.23486328125,-1.28173828125
1781600082.187294,0.5051765502929687,-0.19033903198242186,9.874884747314452,-1.40380859375,-3.35693359375,-1.89208984375
1781600082.191294,0.565031591796875,-0.1640028137207031,9.87608184814453,-0.9765625,-3.35693359375,-2.3193359375
1781600082.195294,0.5674257934570313,-0.09576806640624999,9.865307940673828,-1.03759765625,-3.23486328125,-2.197265625
1781600082.1992939,0.59376201171875,-0.0383072265625,9.87608184814453,-0.54931640625,-2.685546875,-1.708984375
1781600082.2032938,0.6236895324707031,0.005985504150390624,9.892841259765625,-0.244140625,-1.953125,-1.28173828125
1781600082.2072937,0.604535919189453,0.0383072265625,9.874884747314452,0.1220703125,-0.9765625,-0.42724609375
1781600082.2112937,0.5805939025878906,0.10175357055664062,9.822212310791015,0.54931640625,0.06103515625,0.67138671875
1781600082.2152936,0.6057330200195312,0.11731588134765625,9.765948571777344,0.8544921875,1.0986328125,1.0986328125
1781600082.2192936,0.6165069274902344,0.1304839904785156,9.749189160156249,1.0986328125,2.62451171875,1.5869140625
1781600082.2232935,0.6548141540527344,0.1197100830078125,9.744400756835937,1.0986328125,3.41796875,1.8310546875
1781600082.2272935,0.6440402465820312,0.044292730712890624,9.787496386718749,1.03759765625,4.33349609375,1.8310546875
1781600082.2312934,0.6572083557128906,-0.04189852905273437,9.843760125732421,0.91552734375,4.82177734375,1.708984375
1781600082.2352746,0.6655880615234374,-0.11611878051757812,9.896432562255859,0.54931640625,4.8828125,0.9765625
1781600082.2392745,0.6093243225097655,-0.23343466186523437,9.941922393798828,0.54931640625,4.7607421875,0.732421875
1781600082.2432745,0.5470750793457031,-0.34715924072265625,9.970652813720703,0.9765625,4.39453125,-0.30517578125
1781600082.2472744,0.48722003784179685,-0.4321533996582031,9.955090502929687,1.28173828125,4.0283203125,-0.8544921875
1781600082.2512743,0.4704606262207031,-0.41898529052734373,9.911994873046874,2.0751953125,3.84521484375,-1.708984375
1781600082.2552743,0.43454760131835934,-0.3806780639648437,9.878476049804688,2.62451171875,4.21142578125,-1.8310546875
1781600082.2592742,0.3854664672851562,-0.2861070983886719,9.888052856445311,2.99072265625,4.39453125,-2.0751953125
1781600082.2632742,0.2705447875976562,-0.1927332336425781,9.93354268798828,2.9296875,5.18798828125,-1.708984375
1781600082.2672741,-0.3124433166503906,0.229843359375,10.092757098388672,2.9296875,7.01904296875,-1.46484375
1781600082.271274,-0.7912836486816406,0.4165910888671875,9.957484704589843,3.47900390625,8.9111328125,-1.40380859375
1781600082.275274,-0.9133879333496093,0.5147533569335937,9.319429962158203,3.662109375,10.25390625,-1.03759765625
1781600082.279274,-0.7589619262695312,0.5015852478027344,9.689334118652344,1.220703125,9.70458984375,0.42724609375
1781600082.283274,-0.43933600463867184,0.5853823059082031,10.86009873046875,-1.77001953125,5.79833984375,2.74658203125
1781600082.287274,-0.1771709228515625,0.4477157104492187,10.78946978149414,-3.23486328125,-0.18310546875,4.8828125
1781600082.2912738,-0.3028665100097656,0.20231004028320312,9.931148486328125,-1.89208984375,-5.2490234375,5.92041015625
1781600082.2952738,-0.6715735656738281,-0.020350714111328123,10.27232222290039,-0.6103515625,-7.01904296875,5.67626953125
1781600082.2992737,-0.7793126403808593,-0.49320554199218747,10.562020623779297,-0.1220703125,-7.9345703125,3.72314453125
1781600082.3032737,-0.5183446594238281,-0.6775590698242188,9.982623822021484,0.6103515625,-8.11767578125,1.3427734375
1781600082.3072736,0.31483751831054685,-0.13646949462890623,9.817423907470703,1.40380859375,-9.033203125,-0.18310546875
1781600082.3112736,0.843956085205078,0.18555062866210936,10.308235247802735,1.0986328125,-8.85009765625,-1.46484375
1781600082.3152735,0.8930372192382812,0.2549824768066406,9.9215716796875,0.54931640625,-7.2021484375,-2.0751953125
1781600082.3192735,0.7781155395507812,0.010773907470703125,9.240421307373046,-0.54931640625,-6.04248046875,-2.9296875
1781600082.3232734,0.7709329345703124,0.17477672119140625,9.524134204101562,-2.44140625,-2.685546875,-3.35693359375
1781600082.3272734,0.7649474304199219,0.42497079467773435,9.794678991699218,-3.0517578125,1.28173828125,-3.5400390625
1781600082.3312733,0.7146691955566405,0.2501940734863281,9.261969122314452,-1.8310546875,3.662109375,-3.11279296875
1781600082.3352625,0.4860229370117187,0.16998831787109375,9.270348828125,-0.3662109375,5.37109375,-1.708984375
1781600082.3392625,0.4010287780761719,-0.06105214233398437,10.174159954833984,-0.30517578125,6.53076171875,-0.244140625
1781600082.3432624,0.2537853759765625,-0.13766659545898435,10.296264239501953,-0.06103515625,7.87353515625,1.5869140625
1781600082.3472624,0.19871873779296872,-0.15083470458984374,9.906009368896484,1.3427734375,6.7138671875,3.41796875
1781600082.3512623,0.16280571289062498,-0.0430956298828125,10.020931048583984,3.23486328125,4.5166015625,5.18798828125
1781600082.3552623,0.037110125732421874,0.03950432739257812,10.305841046142577,3.72314453125,3.72314453125,5.9814453125
1781600082.3592622,-0.1304839904785156,-0.1867477294921875,10.008960040283203,3.23486328125,2.99072265625,5.4931640625
1781600082.3632622,-0.12330138549804687,-0.20829554443359374,9.878476049804688,1.708984375,1.5869140625,3.96728515625
1781600082.3672621,0.001197100830078125,0.05985504150390625,10.095151300048828,0.91552734375,0.244140625,2.197265625
1781600082.371262,0.15083470458984374,0.22026655273437498,10.151415039062499,-0.42724609375,-1.03759765625,0.244140625
1781600082.375262,0.14484920043945312,0.1927332336425781,9.97903251953125,-1.28173828125,-1.89208984375,-1.03759765625
1781600082.379262,0.17956512451171874,-0.14006079711914063,10.11909331665039,-2.44140625,-3.60107421875,-2.50244140625
1781600082.383262,0.1352723937988281,-0.29568390502929687,10.230423693847655,-3.173828125,-4.57763671875,-3.84521484375
1781600082.3872619,0.0909796630859375,-0.35194764404296874,10.01733974609375,-3.0517578125,-4.638671875,-4.69970703125
1781600082.3912618,0.22026655273437498,-0.28490999755859375,9.81862100830078,-1.46484375,-4.7607421875,-4.638671875
1781600082.3952618,0.27892449340820313,-0.18315642700195311,9.896432562255859,0.3662109375,-4.94384765625,-3.96728515625
1781600082.3992617,0.26815058593749996,-0.17597382202148437,9.937133990478515,1.15966796875,-4.7607421875,-2.8076171875
1781600082.4032617,0.33518823242187495,-0.005985504150390624,9.897629663085937,0.91552734375,-3.0517578125,-0.8544921875
1781600082.4072616,0.4560954162597656,0.22026655273437498,9.916783276367187,0.8544921875,-1.64794921875,0.67138671875
1781600082.4112616,0.5410895751953124,0.4129997863769531,9.74799205932617,1.220703125,-0.54931640625,2.38037109375
1781600082.4152615,0.48243163452148435,0.45010991210937495,9.578003741455078,1.5869140625,1.40380859375,3.47900390625
1781600082.4192615,0.4321533996582031,0.25139117431640623,9.625887774658203,0.67138671875,4.0283203125,3.72314453125
1781600082.4232614,0.39264907226562495,0.07900865478515624,9.712079034423828,0.0,5.9814453125,3.2958984375
1781600082.4272614,0.3687070556640625,-0.017956512451171875,9.731232647705077,-0.1220703125,6.4697265625,2.86865234375
1781600082.4312613,0.3136404174804687,-0.031124621582031248,9.801861596679688,0.3662109375,6.7138671875,1.953125
1781600082.4352612,0.23343466186523437,-0.01915361328125,10.066420880126952,0.42724609375,6.4697265625,1.40380859375
1781600082.4392612,0.03591302490234375,-0.18315642700195311,10.220846887207031,0.67138671875,4.94384765625,0.48828125
1781600082.4432611,-0.21068974609375,-0.21787235107421873,10.181342559814453,0.9765625,3.11279296875,-0.42724609375
1781600082.447261,-0.4848258361816406,-0.07781155395507812,10.193313568115233,0.6103515625,1.708984375,-1.220703125
1781600082.451261,-0.488417138671875,0.18914193115234373,10.22204398803711,0.54931640625,-0.06103515625,-1.708984375
1781600082.455261,-0.430956298828125,0.28490999755859375,10.109516510009765,0.67138671875,-2.44140625,-1.64794921875
1781600082.459261,-0.32441432495117184,0.25258827514648435,10.101136804199218,-0.06103515625,-4.82177734375,-0.9765625
1781600082.463261,-0.22744915771484372,0.17357962036132812,10.19570776977539,-1.708984375,-6.04248046875,-0.54931640625
1781600082.4672608,-0.06464344482421874,0.14724340209960937,10.168174450683592,-2.44140625,-6.77490234375,-0.3662109375
1781600082.4712608,0.14963760375976562,0.06105214233398437,9.922768780517577,-2.13623046875,-7.50732421875,-0.54931640625
1781600082.4752607,0.32441432495117184,-0.04668693237304687,9.891644158935547,-0.91552734375,-7.4462890625,-0.8544921875
1781600082.4792607,0.4213794921875,-0.2705447875976562,10.001777435302733,-0.3662109375,-7.26318359375,-1.28173828125
1781600082.4832606,0.32082302246093747,-0.5243301635742187,9.882067352294921,-0.9765625,-5.615234375,-1.953125
1781600082.4872606,0.3315969299316406,-0.5434837768554687,9.781510882568359,-1.28173828125,-3.47900390625,-2.62451171875
1781600082.4912605,0.6177040283203125,-0.07062894897460938,9.730035546875,-0.1220703125,-2.25830078125,-2.685546875
1781600082.4952605,0.7386112121582031,0.35194764404296874,9.542090716552734,0.9765625,-0.79345703125,-1.953125
1781600082.4992604,0.7362170104980469,0.277727392578125,9.527725506591796,1.46484375,0.9765625,-0.42724609375
1781600082.5032604,0.6751648681640625,-0.013168109130859374,9.859322436523437,-0.244140625,1.89208984375,1.03759765625
1781600082.5072603,0.6189011291503906,-0.016759411621093748,10.083180291748047,-1.40380859375,2.86865234375,2.197265625
1781600082.5112603,0.5901707092285156,0.1352723937988281,9.847351428222655,-1.0986328125,3.5400390625,3.0517578125
1781600082.5152602,0.622492431640625,0.17238251953125,9.680954412841796,0.48828125,3.96728515625,3.2958984375
1781600082.5192602,0.41060558471679687,-0.07541735229492187,9.81263550415039,1.89208984375,4.39453125,2.86865234375
1781600082.52326,0.29568390502929687,-0.4225765930175781,10.03050785522461,2.13623046875,4.94384765625,2.25830078125
1781600082.52726,0.2693476867675781,-0.39743747558593745,10.04247886352539,1.40380859375,5.2490234375,1.15966796875
1781600082.53126,0.38187516479492184,-0.07302315063476562,9.969455712890625,1.52587890625,4.638671875,0.42724609375
1781600082.5352557,0.4848258361816406,0.18555062866210936,9.923965881347655,2.38037109375,3.11279296875,0.06103515625
1781600082.5392525,0.32082302246093747,0.21906945190429686,10.04846436767578,1.953125,1.89208984375,-0.6103515625
1781600082.5432525,-0.10414777221679687,0.11372457885742186,10.11909331665039,0.91552734375,1.64794921875,-0.9765625
1781600082.5472524,-0.4537012145996093,0.14963760375976562,10.029310754394531,-1.03759765625,1.953125,-1.52587890625
1781600082.5512524,-0.49679684448242184,0.36750995483398435,9.861716638183593,-0.91552734375,1.8310546875,-1.77001953125
1781600082.5552022,-0.2980781066894531,0.5159504577636719,9.94072529296875,-0.42724609375,0.3662109375,-1.40380859375
1781600082.5592022,-0.18076222534179687,0.38307226562499996,10.159794744873047,-0.54931640625,-0.91552734375,-0.30517578125
1781600082.5632021,-0.015562310791015624,-0.011971008300781249,10.344148272705077,-1.64794921875,-3.11279296875,0.79345703125
1781600082.567202,0.001197100830078125,-0.2561795776367187,10.281899029541014,-2.25830078125,-5.06591796875,1.5869140625
1781600082.571202,0.03950432739257812,-0.25139117431640623,10.12507882080078,-1.46484375,-5.859375,1.40380859375
1781600082.575202,0.076614453125,-0.17477672119140625,9.849745629882811,0.06103515625,-5.2490234375,0.732421875
1781600082.579202,0.09816226806640624,-0.2346317626953125,9.688137017822266,1.5869140625,-4.21142578125,-0.42724609375
1781600082.583202,0.19991583862304688,-0.2932897033691406,9.759963067626952,1.708984375,-2.8076171875,-1.5869140625
1781600082.5872018,0.32441432495117184,-0.16041151123046873,9.872490545654296,0.244140625,-0.9765625,-2.25830078125
1781600082.5912018,0.4944026428222656,0.1580173095703125,9.80665,-0.732421875,0.3662109375,-2.3193359375
1781600082.5952017,0.6392518432617187,0.3687070556640625,9.72285294189453,-0.9765625,0.79345703125,-1.46484375
1781600082.5992017,0.6248866333007812,0.34715924072265625,9.770736975097655,-1.03759765625,0.79345703125,0.0
1781600082.6032016,0.4896142395019531,0.016759411621093748,9.894038360595703,-1.46484375,0.9765625,0.79345703125
1781600082.6072016,0.26336218261718747,-0.2753331909179687,9.994594830322265,-1.708984375,1.953125,1.46484375
1781600082.6112015,0.22505495605468748,-0.35314474487304687,9.891644158935547,-0.91552734375,2.62451171875,1.15966796875
1781600082.6152015,0.16998831787109375,-0.2645592834472656,9.85094273071289,1.52587890625,3.173828125,1.03759765625
1781600082.6192014,0.06943184814453125,-0.16879121704101563,9.886855755615233,3.5400390625,3.35693359375,0.79345703125
1781600082.6232014,0.07422025146484375,-0.12090718383789062,10.020931048583984,3.60107421875,3.5400390625,0.67138671875
1781600082.6272013,0.14963760375976562,0.04908113403320312,10.155006341552733,2.50244140625,2.9296875,0.8544921875
1781600082.6312013,0.22266075439453123,0.30406361083984373,10.111910711669921,1.15966796875,1.46484375,1.3427734375
1781600082.6352012,0.24899697265624998,0.5039794494628906,9.983820922851562,0.1220703125,0.1220703125,1.46484375
1781600082.6392012,0.1197100830078125,0.47764323120117186,9.919177478027343,-0.48828125,-0.48828125,1.40380859375
1781600082.643201,-0.040701428222656245,0.2454056701660156,9.93354268798828,-1.40380859375,-0.8544921875,0.67138671875
1781600082.647201,-0.1292868896484375,-0.011971008300781249,9.980229620361328,-2.0751953125,-0.8544921875,-0.42724609375
1781600082.651201,-0.00718260498046875,-0.12569558715820311,10.052055670166014,-2.13623046875,-1.15966796875,-1.46484375
1781600082.655201,0.20709844360351562,-0.07900865478515624,10.111910711669921,-1.3427734375,-1.953125,-1.89208984375
1781600082.659201,0.3447650390625,-0.1149216796875,10.121487518310547,-0.18310546875,-3.35693359375,-1.953125
1781600082.6632009,0.3806780639648437,-0.229843359375,10.084377392578125,0.18310546875,-4.45556640625,-1.708984375
1781600082.6672008,0.3435679382324219,-0.22505495605468748,10.028113653564452,-0.06103515625,-4.45556640625,-1.3427734375
1781600082.6712008,0.38187516479492184,-0.09576806640624999,9.9215716796875,-0.18310546875,-3.84521484375,-0.8544921875
1781600082.6752007,0.4261678955078125,0.06943184814453125,9.706093530273437,0.30517578125,-3.35693359375,-0.42724609375
1781600082.6792006,0.430956298828125,0.1580173095703125,9.629479077148437,0.79345703125,-1.46484375,0.0
1781600082.6832006,0.4381389038085937,0.12449848632812499,9.694122521972655,0.42724609375,0.244140625,0.18310546875
1781600082.6872005,0.4381389038085937,0.05985504150390625,9.810241302490233,-0.42724609375,1.953125,0.54931640625
1781600082.6912005,0.46686932373046874,0.02154781494140625,9.821015209960937,-0.91552734375,2.8076171875,0.48828125
1781600082.6952004,0.4608838195800781,0.027533319091796873,9.83178911743164,-0.91552734375,3.662109375,0.9765625
1781600082.6992004,0.411802685546875,-0.06105214233398437,9.916783276367187,-0.18310546875,3.60107421875,1.40380859375
1781600082.7032003,0.3327940307617187,-0.2442085693359375,9.98501802368164,0.3662109375,3.23486328125,1.28173828125
1781600082.7072003,0.20470424194335937,-0.3890577697753906,10.006565838623047,0.732421875,2.44140625,1.28173828125
1781600082.7112002,0.12330138549804687,-0.37229835815429685,10.040084661865233,1.15966796875,2.197265625,0.67138671875
1781600082.7152002,0.003591302490234375,-0.17597382202148437,10.025719451904296,2.01416015625,1.8310546875,0.18310546875
1781600082.7192001,-0.13168109130859373,0.037110125732421874,9.926360083007811,2.197265625,1.708984375,-0.30517578125
1781600082.7232,-0.20829554443359374,0.19991583862304688,9.925162982177733,2.25830078125,1.3427734375,-0.91552734375
1781600082.7272,-0.20350714111328125,0.3280056274414062,10.060435375976562,0.79345703125,1.3427734375,-0.67138671875
1781600082.7312,-0.08259995727539061,0.44412440795898434,10.110713610839843,-0.732421875,0.18310546875,-0.48828125
1781600082.7352,-0.009576806640625,0.47285482788085936,10.007762939453125,-1.953125,-0.9765625,0.30517578125
1781600082.7391999,0.0143652099609375,0.3268085266113281,9.987412225341796,-1.953125,-2.25830078125,0.67138671875
1781600082.7431998,-0.0383072265625,0.06464344482421874,10.01733974609375,-1.8310546875,-2.685546875,0.79345703125
1781600082.7471998,-0.07422025146484375,-0.18315642700195311,10.01733974609375,-1.64794921875,-3.0517578125,0.0
1781600082.7511997,0.015562310791015624,-0.296881005859375,9.989806427001952,-0.732421875,-3.0517578125,-0.732421875
1781600082.7551997,0.1867477294921875,-0.24181436767578124,9.986215124511718,0.18310546875,-2.8076171875,-1.220703125
1781600082.7591996,0.3136404174804687,-0.11611878051757812,9.993397729492187,0.9765625,-2.44140625,-1.64794921875
1781600082.7631996,0.40581718139648437,-0.0526724365234375,9.94671079711914,0.9765625,-2.3193359375,-1.3427734375
1781600082.7671995,0.4991910461425781,0.06464344482421874,9.896432562255859,0.42724609375,-1.89208984375,-0.91552734375
1781600082.7711995,0.5111620544433594,0.1927332336425781,9.8449572265625,-0.1220703125,-1.64794921875,-0.1220703125
1781600082.7751994,0.5015852478027344,0.2537853759765625,9.769539874267577,-0.732421875,-0.79345703125,0.48828125
1781600082.7791994,0.4644751220703125,0.18435352783203124,9.662997900390625,-0.79345703125,0.54931640625,0.67138671875
1781600082.7831993,0.3842693664550781,0.03232172241210937,9.731232647705077,-0.6103515625,1.46484375,0.6103515625
1781600082.7871993,0.31483751831054685,-0.15083470458984374,9.87009634399414,-0.48828125,2.685546875,0.6103515625
1781600082.7911992,0.29568390502929687,-0.229843359375,9.96586441040039,0.0,3.35693359375,0.48828125
1781600082.7951992,0.3076549133300781,-0.22266075439453123,9.996989031982421,0.42724609375,3.41796875,0.42724609375
1781600082.799199,0.3507505432128906,-0.1771709228515625,10.062829577636718,1.28173828125,2.44140625,0.79345703125
1781600082.803199,0.34117373657226563,-0.15322890625,10.08677159423828,1.3427734375,1.15966796875,1.0986328125
1781600082.807199,0.3016694091796875,-0.1352723937988281,10.032902056884765,1.03759765625,0.6103515625,0.9765625
1781600082.811199,0.23582886352539062,-0.08020575561523437,9.981426721191406,0.9765625,-0.18310546875,0.732421875
1781600082.815199,0.09217676391601562,0.044292730712890624,9.891644158935547,0.79345703125,-0.30517578125,0.1220703125
1781600082.8191988,0.003591302490234375,0.15322890625,9.855731134033203,0.42724609375,0.18310546875,-0.48828125
1781600082.8231988,0.003591302490234375,0.19871873779296872,9.872490545654296,0.42724609375,0.42724609375,-0.8544921875
1781600082.8271987,0.08858546142578125,0.19512743530273435,10.012551342773437,-0.6103515625,0.6103515625,-0.9765625
1781600082.8311987,0.20829554443359374,0.16041151123046873,10.104728106689452,-1.28173828125,-0.3662109375,-0.67138671875
1781600082.8351986,0.239420166015625,0.12330138549804687,10.062829577636718,-1.5869140625,-1.28173828125,-0.42724609375
1781600082.8391986,0.229843359375,0.009576806640625,10.007762939453125,-1.220703125,-1.8310546875,0.1220703125
1781600082.8431985,0.14245499877929688,-0.12210428466796874,9.934739788818359,-0.48828125,-2.13623046875,0.42724609375
1781600082.8471985,0.07541735229492187,-0.19153613281249998,9.884461553955077,0.48828125,-1.953125,-0.06103515625
1781600082.8511984,0.09696516723632811,-0.17597382202148437,9.879673150634765,0.8544921875,-1.3427734375,-0.30517578125
1781600082.8551984,0.1867477294921875,-0.058657940673828124,9.897629663085937,1.3427734375,-0.54931640625,-0.732421875
1781600082.8591983,0.28730419921875,0.10654197387695312,9.883264453125,0.9765625,-0.30517578125,-0.3662109375
1781600082.8631983,0.373495458984375,0.20350714111328125,9.896432562255859,0.732421875,0.06103515625,0.1220703125
1781600082.8671982,0.3435679382324219,0.20350714111328125,9.91438907470703,-0.3662109375,0.42724609375,0.30517578125
1781600082.8711982,0.29448680419921874,0.1879448303222656,9.852139831542969,-0.732421875,1.0986328125,0.79345703125
1781600082.8751981,0.17118541870117188,0.13407529296874998,9.809044201660155,-0.91552734375,1.3427734375,0.48828125
1781600082.879198,0.086191259765625,0.023942016601562498,9.779116680908203,-0.8544921875,1.8310546875,0.244140625
1781600082.883198,0.010773907470703125,-0.07900865478515624,9.894038360595703,-0.1220703125,2.3193359375,-0.244140625
1781600082.887198,-0.00239420166015625,-0.20231004028320312,10.006565838623047,0.30517578125,2.01416015625,-0.06103515625
1781600082.891198,0.08020575561523437,-0.1927332336425781,10.10712230834961,0.54931640625,1.28173828125,0.18310546875
1781600082.8951979,0.12210428466796874,-0.11252747802734374,10.171765753173828,0.79345703125,0.0,0.3662109375
1781600082.8991978,0.14604630126953125,-0.027533319091796873,10.141838232421874,0.54931640625,-0.91552734375,0.30517578125
1781600082.9031978,0.10773907470703124,-0.010773907470703125,10.036493359375,0.79345703125,-1.953125,0.54931640625
1781600082.9071977,0.05027823486328125,0.011971008300781249,9.926360083007811,0.67138671875,-1.8310546875,0.3662109375
1781600082.9111977,0.03232172241210937,0.0526724365234375,9.855731134033203,0.30517578125,-1.46484375,-0.18310546875
1781600082.9151976,0.1005564697265625,0.10175357055664062,9.819818109130859,-0.18310546875,-0.79345703125,-0.6103515625
1781600082.9191976,0.24181436767578124,0.12449848632812499,9.87009634399414,-0.48828125,-0.8544921875,-0.9765625
1781600082.9231975,0.3507505432128906,0.10414777221679687,9.947907897949218,-0.79345703125,-1.28173828125,-0.9765625
1781600082.9271975,0.38786066894531246,0.028730419921875,10.007762939453125,-1.220703125,-1.220703125,-0.54931640625
1781600082.9311974,0.38666356811523434,-0.044292730712890624,10.012551342773437,-1.03759765625,-1.15966796875,-0.244140625
1781600082.9351974,0.3459621398925781,-0.09217676391601562,9.949104998779296,-0.732421875,-0.9765625,-0.1220703125
1781600082.9391973,0.32441432495117184,-0.1149216796875,9.894038360595703,-0.18310546875,-1.15966796875,0.0
1781600082.9431973,0.34715924072265625,-0.13646949462890623,9.87009634399414,0.732421875,-0.48828125,-0.18310546875
1781600082.9471972,0.36272155151367186,-0.051475335693359374,9.847351428222655,0.9765625,0.244140625,0.0
1781600082.9511971,0.3794809631347656,-0.005985504150390624,9.879673150634765,1.28173828125,0.732421875,0.18310546875
1781600082.955197,0.43933600463867184,0.076614453125,9.910797772216796,0.9765625,0.91552734375,0.48828125
1781600082.959197,0.4225765930175781,0.1580173095703125,9.900023864746093,0.6103515625,1.0986328125,0.6103515625
1781600082.963197,0.41060558471679687,0.1592144104003906,9.897629663085937,0.1220703125,1.3427734375,0.79345703125
1781600082.967197,0.3363853332519531,0.11252747802734374,9.91438907470703,-0.1220703125,1.52587890625,0.6103515625
1781600082.971197,0.19033903198242186,0.04189852905273437,9.892841259765625,-0.42724609375,2.01416015625,0.1220703125
1781600082.9751968,0.12330138549804687,-0.022744915771484374,9.894038360595703,-0.18310546875,2.25830078125,0.0
1781600082.9791968,0.08259995727539061,-0.047884033203124995,9.932345587158203,-0.18310546875,1.953125,-0.1220703125
1781600082.9831967,0.07062894897460938,-0.07062894897460938,9.999383233642577,0.42724609375,1.52587890625,-0.42724609375
1781600082.9871967,0.06943184814453125,-0.05386953735351562,10.064026678466796,0.48828125,0.6103515625,-0.244140625
1781600082.9911966,0.06344634399414062,0.005985504150390624,10.121487518310547,0.54931640625,-0.6103515625,0.1220703125
1781600082.9951966,0.05626373901367187,0.027533319091796873,10.092757098388672,0.06103515625,-1.15966796875,0.0
1781600082.9991965,0.033518823242187495,0.06464344482421874,10.020931048583984,0.30517578125,-1.77001953125,0.244140625
1781600083.0031965,-0.003591302490234375,0.06344634399414062,9.93952819213867,0.06103515625,-1.64794921875,0.1220703125
1781600083.0071964,0.009576806640625,0.06943184814453125,9.884461553955077,0.18310546875,-1.46484375,-0.1220703125
1781600083.0111964,0.08140285644531249,0.03591302490234375,9.873687646484374,-0.42724609375,-1.15966796875,-0.48828125
1781600083.0151963,0.17477672119140625,0.015562310791015624,9.896432562255859,-0.42724609375,-1.15966796875,-0.3662109375
1781600083.0191963,0.2597708801269531,0.016759411621093748,9.916783276367187,-0.42724609375,-1.0986328125,-0.3662109375
1781600083.0231962,0.2753331909179687,-0.028730419921875,9.955090502929687,-0.54931640625,-0.91552734375,-0.42724609375
1781600083.0271962,0.2657563842773437,-0.07302315063476562,9.961076007080077,-0.30517578125,-0.67138671875,-0.244140625
1781600083.031196,0.24301146850585936,-0.06344634399414062,9.932345587158203,-0.06103515625,-0.42724609375,-0.244140625
1781600083.035196,0.2154781494140625,-0.08499415893554688,9.929951385498047,0.244140625,0.0,-0.42724609375
1781600083.039196,0.23582886352539062,-0.06703764648437499,9.898826763916015,0.54931640625,0.6103515625,0.06103515625
1781600083.043196,0.2262520568847656,0.011971008300781249,9.861716638183593,0.8544921875,0.8544921875,0.1220703125
1781600083.047196,0.23702596435546874,0.06344634399414062,9.890447058105469,0.79345703125,0.91552734375,0.54931640625
1781600083.0511959,0.2561795776367187,0.10773907470703124,9.934739788818359,0.48828125,1.0986328125,0.732421875
1781600083.0551958,0.21787235107421873,0.14604630126953125,9.92755718383789,0.30517578125,1.15966796875,0.91552734375
1781600083.0591958,0.2346317626953125,0.11252747802734374,9.951499200439452,-0.1220703125,0.79345703125,0.9765625
1781600083.0631957,0.19871873779296872,0.10295067138671875,9.961076007080077,0.0,0.79345703125,0.9765625
1781600083.0671957,0.15682020874023436,0.028730419921875,9.975441217041014,0.06103515625,0.54931640625,0.67138671875
1781600083.0711956,0.17118541870117188,-0.05027823486328125,9.999383233642577,-0.244140625,0.48828125,-0.244140625
1781600083.0751956,0.1927332336425781,-0.05626373901367187,10.019733947753906,-0.30517578125,-0.06103515625,-0.244140625
1781600083.0791955,0.2609679809570312,-0.0526724365234375,10.03050785522461,-0.18310546875,-0.732421875,-0.67138671875
1781600083.0831954,0.23822306518554687,-0.04668693237304687,9.995791931152343,0.1220703125,-1.220703125,-0.54931640625
1781600083.0871954,0.24301146850585936,-0.028730419921875,10.007762939453125,0.0,-1.64794921875,-0.67138671875
1781600083.0911953,0.2262520568847656,-0.005985504150390624,9.962273107910155,-0.06103515625,-1.8310546875,-0.9765625
1781600083.0951953,0.25258827514648435,0.04189852905273437,9.928754284667969,-0.244140625,-1.77001953125,-0.54931640625
1781600083.0991952,0.2501940734863281,0.051475335693359374,9.90241806640625,-0.1220703125,-0.9765625,-0.6103515625
1781600083.1031952,0.2657563842773437,0.0383072265625,9.892841259765625,-0.30517578125,-0.732421875,-0.3662109375
1781600083.1071951,0.3112462158203125,0.0383072265625,9.861716638183593,-0.18310546875,-0.54931640625,-0.06103515625
1781600083.111195,0.33399113159179683,-0.011971008300781249,9.900023864746093,-0.3662109375,0.18310546875,0.18310546875
1781600083.115195,0.3268085266113281,-0.037110125732421874,9.898826763916015,-0.18310546875,0.18310546875,0.3662109375
1781600083.119195,0.3555389465332031,-0.08020575561523437,9.883264453125,-0.06103515625,0.732421875,0.48828125
1781600083.123195,0.3076549133300781,-0.09816226806640624,9.89523546142578,0.42724609375,1.03759765625,0.54931640625
1781600083.127195,0.26815058593749996,-0.12090718383789062,9.9215716796875,0.48828125,0.9765625,0.48828125
1781600083.1311948,0.2442085693359375,-0.12689268798828124,9.944316595458984,0.42724609375,1.28173828125,0.3662109375
1781600083.1351948,0.22385785522460935,-0.05626373901367187,9.934739788818359,0.67138671875,1.15966796875,0.1220703125
1781600083.1391947,0.15442600708007811,0.005985504150390624,9.941922393798828,0.91552734375,1.3427734375,-0.1220703125
1781600083.1431947,0.11252747802734374,0.07541735229492187,9.926360083007811,0.54931640625,1.40380859375,-0.244140625
1781600083.1471946,0.08020575561523437,0.1197100830078125,9.935936889648437,0.48828125,1.40380859375,-0.06103515625
1781600083.1511946,0.03232172241210937,0.1292868896484375,9.96586441040039,0.1220703125,1.03759765625,0.1220703125
1781600083.1551945,0.020350714111328123,0.13287819213867186,9.98501802368164,-0.06103515625,0.48828125,0.30517578125
1781600083.1591945,0.017956512451171875,0.11013327636718749,10.008960040283203,-0.3662109375,0.18310546875,0.244140625
1781600083.1631944,-0.003591302490234375,0.09337386474609374,10.013748443603514,-0.244140625,-0.18310546875,0.3662109375
1781600083.1671944,0.017956512451171875,0.04908113403320312,10.007762939453125,-0.244140625,-0.9765625,0.3662109375
1781600083.1711943,0.044292730712890624,-0.013168109130859374,9.98501802368164,-0.244140625,-1.46484375,0.18310546875
1781600083.1751943,0.086191259765625,-0.0909796630859375,9.995791931152343,0.0,-1.3427734375,0.06103515625
1781600083.1791942,0.16759411621093748,-0.037110125732421874,9.964667309570311,0.3662109375,-1.708984375,-0.18310546875
1781600083.1831942,0.20231004028320312,-0.015562310791015624,9.955090502929687,0.18310546875,-1.708984375,-0.18310546875
1781600083.187194,0.2549824768066406,0.010773907470703125,9.90840357055664,-0.244140625,-1.46484375,-0.6103515625
1781600083.191194,0.2645592834472656,0.04189852905273437,9.886855755615233,-0.1220703125,-1.40380859375,-0.42724609375
1781600083.195194,0.2885013000488281,0.06823474731445311,9.888052856445311,-0.67138671875,-0.91552734375,-0.48828125
1781600083.199194,0.30047230834960936,0.05985504150390625,9.868899243164062,-0.732421875,-0.244140625,-0.54931640625
1781600083.203194,0.316034619140625,0.013168109130859374,9.874884747314452,-0.42724609375,0.0,-0.3662109375
1781600083.2071939,0.2765302917480469,-0.03591302490234375,9.879673150634765,-0.48828125,0.54931640625,0.1220703125
1781600083.2111938,0.27892449340820313,-0.05626373901367187,9.920374578857421,0.0,0.8544921875,0.6103515625
1781600083.2151937,0.2885013000488281,-0.08140285644531249,9.95389340209961,0.1220703125,0.9765625,0.6103515625
1781600083.2191937,0.31483751831054685,-0.07422025146484375,9.969455712890625,0.3662109375,0.732421875,0.8544921875
1781600083.2231936,0.3124433166503906,-0.08858546142578125,9.957484704589843,0.54931640625,0.79345703125,0.8544921875
1781600083.2271936,0.28490999755859375,-0.07302315063476562,9.961076007080077,0.67138671875,0.42724609375,0.6103515625
1781600083.2311935,0.28371289672851563,-0.05626373901367187,9.944316595458984,0.8544921875,0.54931640625,0.54931640625
1781600083.2351935,0.2765302917480469,-0.005985504150390624,9.94671079711914,0.6103515625,0.6103515625,0.18310546875
1781600083.2391934,0.2645592834472656,0.03232172241210937,9.93354268798828,0.244140625,0.48828125,0.1220703125
1781600083.2431934,0.21068974609375,0.05626373901367187,9.938331091308592,0.0,0.3662109375,-0.3662109375
1781600083.2471933,0.2154781494140625,0.07062894897460938,9.937133990478515,-0.30517578125,0.18310546875,-0.54931640625
1781600083.2511933,0.21428104858398436,0.055066638183593745,9.957484704589843,-0.48828125,-0.06103515625,-0.3662109375
1781600083.2551932,0.1927332336425781,0.034715924072265626,9.958681805419921,-0.54931640625,-0.3662109375,-0.3662109375
1781600083.2591932,0.18435352783203124,0.025139117431640625,9.987412225341796,-0.54931640625,-0.6103515625,-0.48828125
1781600083.2631931,0.17477672119140625,0.017956512451171875,9.968258612060547,-0.30517578125,-0.8544921875,-0.18310546875
1781600083.267193,0.14604630126953125,0.009576806640625,9.961076007080077,-0.06103515625,-0.79345703125,0.06103515625
1781600083.271193,0.14604630126953125,-0.003591302490234375,9.949104998779296,0.06103515625,-0.8544921875,0.30517578125
1781600083.275193,0.17956512451171874,-0.0143652099609375,9.917980377197265,0.48828125,-0.79345703125,-0.1220703125
1781600083.279193,0.201112939453125,0.0143652099609375,9.90241806640625,0.6103515625,-0.54931640625,0.1220703125
1781600083.2831929,0.24779987182617186,0.03232172241210937,9.90241806640625,0.3662109375,-0.1220703125,0.244140625
1781600083.2871928,0.2454056701660156,0.10175357055664062,9.90122096557617,0.06103515625,0.06103515625,0.18310546875
1781600083.2911928,0.239420166015625,0.04668693237304687,9.892841259765625,-0.1220703125,0.42724609375,0.0
1781600083.2951927,0.239420166015625,0.013168109130859374,9.911994873046874,-0.1220703125,0.6103515625,0.1220703125
1781600083.2991927,0.19393033447265623,0.008379705810546874,9.922768780517577,-0.30517578125,0.91552734375,-0.244140625
1781600083.3031926,0.16639701538085935,-0.01915361328125,9.916783276367187,-0.244140625,0.91552734375,-0.06103515625
1781600083.3071926,0.12449848632812499,-0.022744915771484374,9.944316595458984,-0.18310546875,0.79345703125,-0.06103515625
1781600083.3111925,0.0909796630859375,-0.06464344482421874,9.94072529296875,0.0,0.54931640625,-0.244140625
1781600083.3151925,0.08978256225585937,-0.058657940673828124,9.989806427001952,0.18310546875,0.42724609375,0.0
1781600083.3191924,0.086191259765625,-0.022744915771484374,9.994594830322265,0.42724609375,-0.1220703125,0.06103515625
1781600083.3231924,0.07541735229492187,0.025139117431640625,9.976638317871092,0.18310546875,-0.48828125,0.244140625
1781600083.3271923,0.10773907470703124,0.0143652099609375,9.97903251953125,0.3662109375,-0.54931640625,0.3662109375
1781600083.3311923,0.13766659545898435,0.037110125732421874,9.970652813720703,0.1220703125,-0.6103515625,0.0
1781600083.3351922,0.16041151123046873,0.034715924072265626,9.94671079711914,0.1220703125,-0.8544921875,0.3662109375
1781600083.3391922,0.20350714111328125,0.025139117431640625,9.929951385498047,0.0,-0.8544921875,0.0
1781600083.343192,0.20709844360351562,0.028730419921875,9.931148486328125,-0.30517578125,-0.732421875,-0.06103515625
1781600083.347192,0.2442085693359375,0.020350714111328123,9.94072529296875,-0.3662109375,-0.9765625,-0.244140625
1781600083.351192,0.28371289672851563,0.001197100830078125,9.947907897949218,-0.48828125,-0.79345703125,-0.67138671875
1781600083.355192,0.27293898925781246,-0.01915361328125,9.950302099609374,-0.18310546875,-0.79345703125,-0.42724609375
1781600083.359192,0.28730419921875,-0.028730419921875,9.935936889648437,-0.06103515625,-0.8544921875,-0.42724609375
1781600083.3631918,0.3028665100097656,-0.016759411621093748,9.922768780517577,0.06103515625,-0.6103515625,-0.30517578125
1781600083.3671918,0.3112462158203125,0.0,9.926360083007811,0.30517578125,-0.48828125,-0.30517578125
1781600083.3711917,0.3124433166503906,0.020350714111328123,9.91438907470703,0.30517578125,-0.3662109375,0.30517578125
1781600083.3751917,0.3268085266113281,0.02154781494140625,9.917980377197265,0.30517578125,0.1220703125,0.3662109375
1781600083.3791916,0.3232172241210937,0.04548983154296875,9.90122096557617,0.30517578125,0.3662109375,0.3662109375
1781600083.3831916,0.3184288208007812,0.05027823486328125,9.882067352294921,0.1220703125,0.48828125,0.6103515625
1781600083.3871915,0.2920926025390625,0.04668693237304687,9.922768780517577,0.244140625,0.9765625,0.48828125
1781600083.3911915,0.2645592834472656,0.04908113403320312,9.91438907470703,0.06103515625,0.9765625,0.244140625
1781600083.3951914,0.26336218261718747,0.02154781494140625,9.944316595458984,0.18310546875,1.0986328125,0.3662109375
1781600083.3991914,0.25737667846679685,-0.0143652099609375,9.94072529296875,-0.06103515625,0.732421875,0.18310546875
1781600083.4031913,0.1927332336425781,-0.04908113403320312,9.96586441040039,0.06103515625,0.6103515625,0.0
1781600083.4071913,0.1927332336425781,-0.040701428222656245,9.975441217041014,0.30517578125,0.3662109375,-0.06103515625
1781600083.4111912,0.143652099609375,-0.04548983154296875,9.974244116210937,0.18310546875,0.06103515625,-0.244140625
1781600083.4151912,0.11611878051757812,-0.037110125732421874,9.947907897949218,0.18310546875,0.0,-0.3662109375
1781600083.4191911,0.11851298217773437,-0.00718260498046875,9.96586441040039,0.244140625,-0.3662109375,-0.48828125
1781600083.423191,0.10654197387695312,0.0143652099609375,9.945513696289062,0.30517578125,-0.3662109375,-0.1220703125
1781600083.427191,0.11731588134765625,0.05386953735351562,9.938331091308592,0.0,-0.732421875,-0.06103515625
1781600083.431191,0.14125789794921875,0.017956512451171875,9.941922393798828,0.18310546875,-0.67138671875,0.0
1781600083.435191,0.12449848632812499,0.029927520751953124,9.95389340209961,-0.06103515625,-0.6103515625,0.0
1781600083.4391909,0.17597382202148437,0.00239420166015625,9.947907897949218,-0.1220703125,-0.6103515625,0.06103515625
1781600083.4431908,0.1771709228515625,-0.005985504150390624,9.922768780517577,-0.06103515625,-0.48828125,-0.244140625
1781600083.4471908,0.201112939453125,-0.025139117431640625,9.904812268066406,-0.06103515625,-0.30517578125,0.06103515625
1781600083.4511907,0.2059013427734375,-0.05626373901367187,9.926360083007811,0.06103515625,-0.244140625,0.0
1781600083.4551907,0.23223756103515625,-0.037110125732421874,9.926360083007811,0.1220703125,-0.18310546875,0.1220703125
1781600083.4591906,0.22505495605468748,-0.009576806640625,9.91558617553711,0.18310546875,0.0,0.06103515625
1781600083.4631906,0.21188684692382811,0.013168109130859374,9.945513696289062,0.18310546875,0.06103515625,0.06103515625
1781600083.4671905,0.19871873779296872,0.05386953735351562,9.913191973876952,0.48828125,0.244140625,-0.244140625
1781600083.4711905,0.19512743530273435,0.05386953735351562,9.925162982177733,0.30517578125,0.6103515625,0.1220703125
1781600083.4751904,0.19871873779296872,0.06464344482421874,9.963470208740233,0.30517578125,0.48828125,0.30517578125
1781600083.4791903,0.14724340209960937,0.07781155395507812,9.944316595458984,0.18310546875,0.54931640625,0.1220703125
1781600083.4831903,0.15562310791015624,0.08738836059570312,9.93354268798828,0.18310546875,0.42724609375,0.244140625
1781600083.4871902,0.13766659545898435,0.05386953735351562,9.944316595458984,0.0,0.244140625,0.18310546875
1781600083.4911902,0.18076222534179687,0.03950432739257812,9.96586441040039,-0.1220703125,0.06103515625,0.42724609375
1781600083.4951901,0.18914193115234373,0.022744915771484374,9.986215124511718,0.06103515625,-0.06103515625,0.1220703125
1781600083.49919,0.19153613281249998,0.0047884033203125,10.002974536132811,-0.06103515625,-0.48828125,0.1220703125
1781600083.50319,0.2537853759765625,-0.037110125732421874,10.00417163696289,0.06103515625,-0.6103515625,0.18310546875
1781600083.50719,0.2454056701660156,-0.031124621582031248,9.983820922851562,0.06103515625,-0.732421875,-0.1220703125
1781600083.51119,0.2214636535644531,-0.023942016601562498,9.929951385498047,-0.1220703125,-0.6103515625,-0.3662109375
1781600083.51519,0.26695348510742184,-0.027533319091796873,9.9215716796875,0.1220703125,-0.9765625,-0.48828125
1781600083.5191898,0.28490999755859375,-0.015562310791015624,9.916783276367187,0.0,-0.91552734375,-0.67138671875
1781600083.5231898,0.28969840087890625,0.00718260498046875,9.90840357055664,0.1220703125,-0.54931640625,-0.30517578125
1781600083.5271897,0.3028665100097656,0.027533319091796873,9.910797772216796,-0.06103515625,-0.30517578125,-0.244140625
1781600083.5311897,0.30406361083984373,0.033518823242187495,9.9215716796875,0.0,-0.18310546875,-0.244140625
1781600083.5351896,0.29568390502929687,0.013168109130859374,9.925162982177733,-0.06103515625,0.1220703125,0.18310546875
1781600083.5391896,0.2753331909179687,-0.025139117431640625,9.923965881347655,0.06103515625,0.30517578125,0.18310546875
1781600083.5431895,0.28371289672851563,-0.03591302490234375,9.909600671386718,0.1220703125,0.6103515625,0.30517578125
1781600083.5471895,0.2597708801269531,-0.03591302490234375,9.90122096557617,0.244140625,0.6103515625,0.3662109375
1781600083.5511894,0.24660277099609373,-0.06703764648437499,9.911994873046874,0.3662109375,0.79345703125,0.6103515625
1781600083.5551894,0.23702596435546874,-0.013168109130859374,9.926360083007811,0.48828125,0.91552734375,0.3662109375
1781600083.5591893,0.18914193115234373,0.017956512451171875,9.967061511230469,0.42724609375,0.6103515625,0.3662109375
1781600083.5631893,0.16879121704101563,0.005985504150390624,9.973047015380859,0.30517578125,0.91552734375,0.1220703125
1781600083.5671892,0.143652099609375,0.033518823242187495,9.944316595458984,0.48828125,0.8544921875,0.30517578125
1781600083.5711892,0.12210428466796874,0.06943184814453125,9.952696301269532,0.244140625,0.6103515625,0.06103515625
1781600083.575189,0.11252747802734374,0.06823474731445311,9.963470208740233,0.06103515625,0.54931640625,0.1220703125
1781600083.579189,0.08140285644531249,0.06344634399414062,9.973047015380859,-0.244140625,0.18310546875,-0.1220703125
1781600083.583189,0.062249243164062495,0.0383072265625,9.95987890625,-0.3662109375,-0.1220703125,-0.1220703125
1781600083.587189,0.09457096557617187,0.06344634399414062,9.99220062866211,-0.06103515625,-0.42724609375,0.06103515625
1781600083.591189,0.08978256225585937,0.040701428222656245,9.995791931152343,-0.06103515625,-0.732421875,0.1220703125
1781600083.5951889,0.09576806640624999,0.02154781494140625,9.983820922851562,0.06103515625,-0.67138671875,0.1220703125
1781600083.5991888,0.1149216796875,-0.02154781494140625,9.980229620361328,-0.06103515625,-1.03759765625,0.06103515625
1781600083.6031888,0.17118541870117188,0.001197100830078125,9.955090502929687,0.1220703125,-0.732421875,-0.1220703125
1781600083.6071887,0.17477672119140625,0.011971008300781249,9.945513696289062,0.18310546875,-0.8544921875,-0.244140625
1781600083.6111887,0.2346317626953125,0.015562310791015624,9.906009368896484,-0.244140625,-0.42724609375,0.0
1781600083.6151886,0.25139117431640623,0.029927520751953124,9.903615167236328,0.0,-0.732421875,0.244140625
1781600083.6191885,0.26815058593749996,0.020350714111328123,9.909600671386718,-0.244140625,-0.42724609375,0.0
1781600083.6231885,0.2645592834472656,0.015562310791015624,9.911994873046874,-0.30517578125,0.18310546875,-0.06103515625
1781600083.6271884,0.2861070983886719,0.00718260498046875,9.890447058105469,-0.06103515625,0.30517578125,0.06103515625
1781600083.6311884,0.25737667846679685,-0.044292730712890624,9.917980377197265,0.06103515625,0.42724609375,0.18310546875
1781600083.6351883,0.2657563842773437,-0.02633621826171875,9.95389340209961,0.0,0.6103515625,0.244140625
1781600083.6391883,0.26216508178710934,-0.047884033203124995,9.968258612060547,0.1220703125,0.42724609375,0.42724609375
1781600083.6431882,0.27892449340820313,-0.0526724365234375,9.952696301269532,0.1220703125,0.48828125,0.1220703125
1781600083.6471882,0.258573779296875,-0.034715924072265626,9.938331091308592,0.1220703125,0.48828125,0.3662109375
1781600083.6511881,0.24779987182617186,-0.033518823242187495,9.944316595458984,0.244140625,0.1220703125,0.30517578125
1781600083.655188,0.21428104858398436,-0.005985504150390624,9.94072529296875,0.18310546875,0.1220703125,0.18310546875
1781600083.659188,0.2154781494140625,-0.013168109130859374,9.949104998779296,0.1220703125,0.0,0.244140625
1781600083.663188,0.20829554443359374,0.031124621582031248,9.95389340209961,0.06103515625,0.0,0.1220703125
1781600083.667188,0.21428104858398436,0.05386953735351562,9.945513696289062,-0.06103515625,-0.244140625,-0.18310546875
1781600083.6711879,0.22385785522460935,0.0430956298828125,9.968258612060547,-0.244140625,-0.244140625,-0.18310546875
1781600083.6751878,0.23223756103515625,0.009576806640625,9.962273107910155,-0.06103515625,-0.3662109375,0.0
1781600083.6791878,0.2166752502441406,0.0,9.949104998779296,-0.30517578125,-0.48828125,-0.42724609375
1781600083.6831877,0.22266075439453123,0.015562310791015624,9.951499200439452,-0.18310546875,-0.244140625,-0.30517578125
1781600083.6871877,0.24660277099609373,-0.011971008300781249,9.90840357055664,0.06103515625,-0.6103515625,-0.30517578125
1781600083.6911876,0.24660277099609373,-0.00718260498046875,9.922768780517577,-0.18310546875,-0.3662109375,-0.1220703125
1781600083.6951876,0.229843359375,-0.01915361328125,9.910797772216796,0.1220703125,-0.244140625,-0.18310546875
1781600083.6991875,0.22385785522460935,0.013168109130859374,9.911994873046874,0.3662109375,-0.18310546875,-0.18310546875
1781600083.7031875,0.21906945190429686,0.04548983154296875,9.917980377197265,0.1220703125,-0.1220703125,-0.1220703125
1781600083.7071874,0.22385785522460935,0.0383072265625,9.926360083007811,0.244140625,0.244140625,0.0
1781600083.7111874,0.2154781494140625,0.0430956298828125,9.92755718383789,0.0,0.3662109375,0.18310546875
1781600083.7151873,0.19512743530273435,0.025139117431640625,9.928754284667969,0.1220703125,0.54931640625,0.18310546875
1781600083.7191873,0.17836802368164062,-0.00239420166015625,9.928754284667969,-0.1220703125,0.6103515625,0.18310546875
1781600083.7231872,0.17357962036132812,-0.033518823242187495,9.935936889648437,-0.1220703125,0.54931640625,0.1220703125
1781600083.7271872,0.1484405029296875,-0.022744915771484374,9.955090502929687,-0.1220703125,0.48828125,-0.06103515625
1781600083.731187,0.15562310791015624,-0.023942016601562498,9.961076007080077,0.0,0.30517578125,0.0
1781600083.735187,0.12210428466796874,-0.028730419921875,9.96586441040039,0.06103515625,0.3662109375,-0.1220703125
1781600083.739187,0.11133037719726561,-0.023942016601562498,9.974244116210937,0.30517578125,-0.1220703125,-0.1220703125
1781600083.743187,0.105344873046875,-0.02154781494140625,9.962273107910155,0.244140625,-0.18310546875,0.0
1781600083.747187,0.09935936889648436,0.00239420166015625,9.982623822021484,0.18310546875,-0.244140625,-0.244140625
1781600083.7511868,0.1304839904785156,0.005985504150390624,9.962273107910155,0.244140625,-0.54931640625,0.06103515625
1781600083.7551868,0.14724340209960937,0.029927520751953124,9.955090502929687,-0.06103515625,-0.54931640625,-0.1220703125
1781600083.7591867,0.16519991455078123,0.033518823242187495,9.95987890625,-0.18310546875,-1.03759765625,0.0
1781600083.7631867,0.17597382202148437,-0.0047884033203125,9.952696301269532,0.06103515625,-0.732421875,-0.1220703125
1781600083.7671866,0.2166752502441406,0.020350714111328123,9.932345587158203,-0.18310546875,-0.91552734375,-0.1220703125
1781600083.771124,0.23702596435546874,0.010773907470703125,9.943119494628906,0.0,-0.732421875,-0.18310546875
1781600083.7751238,0.2549824768066406,0.005985504150390624,9.923965881347655,-0.1220703125,-0.48828125,-0.1220703125
1781600083.7791238,0.2549824768066406,-0.009576806640625,9.92755718383789,-0.18310546875,-0.42724609375,-0.1220703125
1781600083.7831237,0.2813186950683594,-0.040701428222656245,9.928754284667969,-0.06103515625,-0.30517578125,-0.244140625
1781600083.7871237,0.30526071166992186,-0.025139117431640625,9.923965881347655,0.30517578125,-0.06103515625,-0.18310546875
1781600083.7911236,0.2980781066894531,-0.009576806640625,9.919177478027343,0.06103515625,0.06103515625,0.0
1781600083.7951236,0.28730419921875,0.04189852905273437,9.925162982177733,0.3662109375,0.18310546875,0.1220703125
1781600083.7991235,0.27892449340820313,0.06584054565429687,9.9215716796875,0.244140625,0.42724609375,0.18310546875
1781600083.8031235,0.27293898925781246,0.022744915771484374,9.916783276367187,0.244140625,0.3662109375,0.06103515625
1781600083.8071234,0.25737667846679685,0.001197100830078125,9.92755718383789,0.1220703125,0.42724609375,0.1220703125
1781600083.8111234,0.24899697265624998,0.023942016601562498,9.92755718383789,0.30517578125,0.54931640625,0.0
1781600083.8151233,0.239420166015625,0.022744915771484374,9.92755718383789,0.18310546875,0.54931640625,0.3662109375
1781600083.8191233,0.19632453613281248,0.0,9.926360083007811,0.18310546875,0.18310546875,0.18310546875
1781600083.8231232,0.20949264526367187,-0.003591302490234375,9.963470208740233,0.0,0.42724609375,0.18310546875
1781600083.8271232,0.19153613281249998,-0.003591302490234375,9.976638317871092,0.06103515625,0.244140625,0.06103515625
1781600083.831123,0.20350714111328125,-0.013168109130859374,9.986215124511718,0.06103515625,-0.1220703125,0.0
1781600083.835123,0.19871873779296872,-0.00239420166015625,9.976638317871092,0.18310546875,-0.30517578125,-0.244140625
1781600083.839123,0.17357962036132812,-0.03591302490234375,9.964667309570311,-0.06103515625,-0.244140625,-0.18310546875
1781600083.843123,0.16519991455078123,0.011971008300781249,9.967061511230469,0.06103515625,-0.244140625,-0.244140625
1781600083.847123,0.181959326171875,0.00239420166015625,9.9215716796875,0.0,-0.6103515625,-0.1220703125
1781600083.8511229,0.20350714111328125,0.009576806640625,9.9215716796875,-0.06103515625,-0.3662109375,-0.06103515625
1781600083.8551228,0.1927332336425781,0.02154781494140625,9.955090502929687,0.18310546875,-0.30517578125,-0.06103515625
1781600083.8591228,0.22505495605468748,0.020350714111328123,9.926360083007811,0.0,-0.06103515625,-0.3662109375
1781600083.8631227,0.21068974609375,0.001197100830078125,9.93354268798828,-0.1220703125,0.06103515625,-0.06103515625
1781600083.8671227,0.1975216369628906,0.0047884033203125,9.920374578857421,0.0,0.1220703125,0.18310546875
1781600083.8711226,0.20350714111328125,0.005985504150390624,9.926360083007811,0.30517578125,0.06103515625,0.18310546875
1781600083.8751225,0.17836802368164062,-0.011971008300781249,9.929951385498047,0.30517578125,0.30517578125,0.18310546875
1781600083.8791225,0.17836802368164062,0.009576806640625,9.9215716796875,0.18310546875,0.48828125,0.18310546875
1781600083.8831224,0.1771709228515625,0.05626373901367187,9.938331091308592,0.06103515625,0.42724609375,0.30517578125
1781600083.8871224,0.18435352783203124,0.0430956298828125,9.943119494628906,0.1220703125,0.48828125,0.244140625
1781600083.8911223,0.15203180541992187,0.0430956298828125,9.949104998779296,-0.06103515625,0.244140625,0.244140625
1781600083.8951223,0.14963760375976562,0.029927520751953124,9.955090502929687,0.18310546875,0.30517578125,0.244140625
1781600083.8991222,0.14963760375976562,0.04908113403320312,9.975441217041014,0.0,0.18310546875,-0.06103515625
1781600083.9031222,0.12689268798828124,0.033518823242187495,9.95987890625,-0.244140625,-0.06103515625,0.1220703125
1781600083.9071221,0.16759411621093748,0.00718260498046875,9.945513696289062,-0.244140625,-0.30517578125,-0.1220703125
1781600083.911122,0.18076222534179687,0.009576806640625,9.955090502929687,-0.18310546875,-0.6103515625,-0.06103515625
1781600083.915122,0.19393033447265623,0.00718260498046875,9.968258612060547,-0.1220703125,-0.54931640625,-0.244140625
1781600083.919122,0.18435352783203124,-0.011971008300781249,9.941922393798828,-0.18310546875,-0.67138671875,-0.06103515625
1781600083.923122,0.22385785522460935,0.0,9.963470208740233,0.0,-0.79345703125,-0.30517578125
1781600083.9271219,0.20949264526367187,-0.023942016601562498,9.961076007080077,-0.18310546875,-0.732421875,-0.42724609375
1781600083.9311218,0.239420166015625,0.00718260498046875,9.973047015380859,-0.42724609375,-0.732421875,-0.18310546875
1781600083.9351218,0.24899697265624998,-0.03591302490234375,9.916783276367187,-0.06103515625,-0.48828125,-0.06103515625
1781600083.9391217,0.2861070983886719,-0.005985504150390624,9.907206469726562,0.0,-0.42724609375,-0.1220703125
1781600083.9431217,0.3016694091796875,-0.001197100830078125,9.909600671386718,-0.18310546875,-0.42724609375,-0.30517578125
1781600083.9471216,0.3028665100097656,-0.0143652099609375,9.894038360595703,-0.06103515625,-0.1220703125,-0.06103515625
1781600083.9511216,0.30526071166992186,-0.03591302490234375,9.892841259765625,-0.06103515625,0.0,-0.06103515625
1781600083.9551215,0.296881005859375,-0.016759411621093748,9.9215716796875,-0.06103515625,0.06103515625,0.0
1781600083.9591215,0.3124433166503906,-0.016759411621093748,9.961076007080077,0.1220703125,0.18310546875,0.244140625
1781600083.9631214,0.29448680419921874,-0.04548983154296875,9.93952819213867,0.244140625,0.42724609375,0.244140625
1781600083.9671214,0.24660277099609373,-0.027533319091796873,9.903615167236328,-0.06103515625,0.54931640625,-0.1220703125
1781600083.9711213,0.23702596435546874,-0.011971008300781249,9.919177478027343,0.06103515625,0.54931640625,0.1220703125
1781600083.9751213,0.23702596435546874,0.0047884033203125,9.938331091308592,0.42724609375,0.67138671875,0.244140625
1781600083.9791212,0.22266075439453123,-0.016759411621093748,9.931148486328125,0.06103515625,0.54931640625,-0.06103515625
1781600083.9831212,0.18555062866210936,0.033518823242187495,9.951499200439452,0.42724609375,0.54931640625,0.244140625
1781600083.987121,0.17477672119140625,0.020350714111328123,9.988609326171874,-0.18310546875,0.30517578125,0.244140625
1781600083.991121,0.14484920043945312,0.040701428222656245,9.951499200439452,0.06103515625,0.1220703125,0.06103515625
1781600083.995121,0.12449848632812499,0.047884033203124995,9.964667309570311,0.06103515625,0.18310546875,0.18310546875
1781600083.999121,0.12210428466796874,0.0,9.980229620361328,0.1220703125,0.06103515625,-0.18310546875
1781600084.003121,0.13766659545898435,0.028730419921875,9.9981861328125,-0.1220703125,-0.18310546875,-0.1220703125
1781600084.0071208,0.12090718383789062,0.0143652099609375,9.95389340209961,0.0,-0.3662109375,0.0
1781600084.0111208,0.15083470458984374,0.001197100830078125,9.950302099609374,0.0,-0.3662109375,-0.3662109375
1781600084.0151207,0.15682020874023436,0.001197100830078125,9.958681805419921,0.06103515625,-0.6103515625,-0.18310546875
1781600084.0191207,0.17597382202148437,0.020350714111328123,9.94671079711914,0.18310546875,-0.54931640625,-0.42724609375
1781600084.0231206,0.1640028137207031,-0.0143652099609375,9.947907897949218,0.0,-0.67138671875,-0.1220703125
1781600084.027071,0.1879448303222656,0.027533319091796873,9.952696301269532,-0.1220703125,-0.42724609375,-0.18310546875
1781600084.031071,0.19153613281249998,-0.015562310791015624,9.937133990478515,-0.06103515625,-0.42724609375,0.0
1781600084.035071,0.1771709228515625,-0.0047884033203125,9.90840357055664,0.18310546875,-0.18310546875,0.0
1781600084.0390708,0.19393033447265623,-0.009576806640625,9.907206469726562,-0.06103515625,-0.06103515625,0.0
1781600084.0430708,0.22026655273437498,-0.02154781494140625,9.919177478027343,-0.18310546875,-0.1220703125,0.06103515625
1781600084.0470707,0.21787235107421873,0.003591302490234375,9.90840357055664,0.0,0.0,-0.1220703125
1781600084.0510707,0.22026655273437498,-0.027533319091796873,9.91438907470703,0.244140625,0.1220703125,0.06103515625
1781600084.0550706,0.2442085693359375,-0.008379705810546874,9.989806427001952,0.30517578125,0.3662109375,0.1220703125
1781600084.0590706,0.20350714111328125,-0.023942016601562498,9.951499200439452,0.18310546875,0.244140625,0.42724609375
1781600084.0630705,0.201112939453125,-0.031124621582031248,9.925162982177733,0.1220703125,0.3662109375,0.18310546875
1781600084.0670705,0.21188684692382811,-0.017956512451171875,9.955090502929687,0.18310546875,0.18310546875,-0.06103515625
1781600084.0710704,0.22385785522460935,0.00239420166015625,9.963470208740233,0.18310546875,0.06103515625,0.30517578125
1781600084.0750704,0.229843359375,-0.001197100830078125,9.91558617553711,0.30517578125,0.06103515625,0.06103515625
1781600084.0790703,0.21188684692382811,0.016759411621093748,9.928754284667969,0.30517578125,-0.30517578125,-0.06103515625
1781600084.0830703,0.23702596435546874,-0.0047884033203125,9.974244116210937,-0.06103515625,-0.06103515625,0.06103515625
1781600084.0870702,0.24301146850585936,0.011971008300781249,9.967061511230469,0.06103515625,-0.30517578125,0.06103515625
1781600084.0910702,0.23702596435546874,0.02633621826171875,9.94072529296875,0.0,-0.42724609375,-0.06103515625
1781600084.0950701,0.2214636535644531,0.016759411621093748,9.961076007080077,0.0,-0.54931640625,-0.244140625
1781600084.09907,0.2346317626953125,0.008379705810546874,9.958681805419921,0.0,-0.30517578125,0.0
1781600084.10307,0.2693476867675781,-0.015562310791015624,9.903615167236328,-0.18310546875,-0.244140625,0.0
1781600084.10707,0.27293898925781246,-0.023942016601562498,9.91438907470703,0.06103515625,-0.42724609375,-0.18310546875
1781600084.11107,0.24301146850585936,0.013168109130859374,9.937133990478515,0.244140625,-0.3662109375,0.06103515625
1781600084.1150699,0.239420166015625,-0.00718260498046875,9.932345587158203,0.1220703125,-0.18310546875,0.0
1781600084.1190698,0.25737667846679685,0.0047884033203125,9.900023864746093,0.30517578125,-0.30517578125,0.06103515625
1781600084.1230698,0.25139117431640623,0.01915361328125,9.931148486328125,0.06103515625,0.244140625,0.06103515625
1781600084.1270697,0.2346317626953125,0.013168109130859374,9.962273107910155,-0.1220703125,0.18310546875,0.18310546875
1781600084.1310697,0.21308394775390624,0.025139117431640625,9.920374578857421,-0.06103515625,0.54931640625,0.1220703125
1781600084.1350696,0.2059013427734375,0.0,9.917980377197265,0.48828125,0.3662109375,0.0
1781600084.1390696,0.19153613281249998,0.00718260498046875,9.964667309570311,0.1220703125,0.54931640625,0.1220703125
1781600084.1430695,0.17956512451171874,0.01915361328125,9.976638317871092,0.1220703125,0.42724609375,0.1220703125
1781600084.1470695,0.16519991455078123,-0.017956512451171875,9.938331091308592,0.18310546875,0.48828125,0.0
1781600084.1510694,0.1592144104003906,0.005985504150390624,9.970652813720703,0.1220703125,-0.06103515625,0.1220703125
1781600084.1550694,0.1304839904785156,-0.001197100830078125,9.974244116210937,0.18310546875,0.06103515625,0.18310546875
1781600084.1590693,0.14604630126953125,-0.02154781494140625,9.976638317871092,0.1220703125,0.06103515625,0.0
1781600084.1630692,0.1292868896484375,-0.011971008300781249,9.967061511230469,0.0,-0.18310546875,0.06103515625
1781600084.1670692,0.14125789794921875,0.016759411621093748,9.981426721191406,-0.1220703125,-0.30517578125,0.244140625
1781600084.1710691,0.1580173095703125,0.027533319091796873,9.983820922851562,-0.1220703125,-0.48828125,0.18310546875
1781600084.175069,0.14484920043945312,0.02633621826171875,9.944316595458984,-0.18310546875,-0.54931640625,0.0
1781600084.179069,0.17357962036132812,0.0047884033203125,9.926360083007811,0.06103515625,-0.67138671875,-0.1220703125
1781600084.183069,0.1927332336425781,0.0143652099609375,9.949104998779296,0.1220703125,-0.732421875,0.1220703125
1781600084.187069,0.21787235107421873,0.023942016601562498,9.961076007080077,0.1220703125,-0.42724609375,-0.244140625
1781600084.191069,0.21188684692382811,0.0047884033203125,9.945513696289062,-0.244140625,-0.48828125,-0.06103515625
1781600084.1950688,0.21308394775390624,0.022744915771484374,9.923965881347655,0.0,-0.42724609375,-0.3662109375
1781600084.1990688,0.21906945190429686,-0.025139117431640625,9.944316595458984,0.244140625,-0.244140625,-0.06103515625
1781600084.2030687,0.24779987182617186,0.0383072265625,9.889249957275391,0.30517578125,-0.244140625,-0.06103515625
1781600084.2070687,0.26216508178710934,0.047884033203124995,9.892841259765625,0.244140625,-0.18310546875,0.06103515625
1781600084.2110686,0.2813186950683594,0.031124621582031248,9.917980377197265,0.06103515625,0.06103515625,0.1220703125
1781600084.2150686,0.26216508178710934,0.027533319091796873,9.94671079711914,0.1220703125,0.06103515625,0.244140625
1781600084.2190685,0.25737667846679685,0.01915361328125,9.950302099609374,-0.06103515625,0.244140625,0.30517578125
1781600084.2230685,0.2657563842773437,0.010773907470703125,9.906009368896484,0.1220703125,0.30517578125,0.1220703125
1781600084.2270684,0.23104046020507812,0.020350714111328123,9.919177478027343,0.244140625,0.30517578125,0.18310546875
1781600084.2310684,0.2154781494140625,0.0143652099609375,9.951499200439452,0.244140625,0.30517578125,0.18310546875
1781600084.2350683,0.2346317626953125,-0.023942016601562498,9.93354268798828,0.06103515625,0.30517578125,0.1220703125
1781600084.2390683,0.25737667846679685,-0.0430956298828125,9.969455712890625,0.06103515625,0.18310546875,-0.06103515625
1781600084.2430682,0.2442085693359375,-0.0143652099609375,9.981426721191406,0.244140625,-0.06103515625,-0.06103515625
1781600084.2470682,0.21906945190429686,-0.009576806640625,9.95389340209961,0.18310546875,-0.1220703125,-0.06103515625
1781600084.251068,0.2262520568847656,-0.001197100830078125,9.947907897949218,0.18310546875,-0.18310546875,0.1220703125
1781600084.255068,0.21906945190429686,-0.0047884033203125,9.944316595458984,0.1220703125,-0.1220703125,0.0
1781600084.259068,0.20949264526367187,-0.00239420166015625,9.94072529296875,0.06103515625,-0.244140625,-0.244140625
1781600084.263068,0.2166752502441406,0.0430956298828125,9.932345587158203,0.06103515625,-0.3662109375,-0.244140625
1781600084.267068,0.229843359375,0.027533319091796873,9.928754284667969,0.1220703125,-0.1220703125,-0.1220703125
1781600084.2710679,0.20350714111328125,0.010773907470703125,9.93354268798828,0.06103515625,-0.244140625,0.0
1781600084.2750678,0.20949264526367187,-0.017956512451171875,9.920374578857421,0.0,-0.244140625,0.0
1781600084.2790678,0.22744915771484372,-0.010773907470703125,9.94072529296875,-0.06103515625,0.0,0.0
1781600084.2830677,0.21188684692382811,-0.022744915771484374,9.919177478027343,0.06103515625,0.18310546875,0.06103515625
1781600084.2870677,0.201112939453125,0.00718260498046875,9.91558617553711,0.3662109375,-0.244140625,0.3662109375
1781600084.2910676,0.1640028137207031,0.008379705810546874,9.923965881347655,0.30517578125,0.1220703125,-0.06103515625
1781600084.2950675,0.17956512451171874,-0.010773907470703125,9.961076007080077,0.06103515625,0.30517578125,0.0
1781600084.2990675,0.16879121704101563,0.016759411621093748,9.952696301269532,0.244140625,0.244140625,0.0
1781600084.3030674,0.1580173095703125,0.011971008300781249,9.931148486328125,0.244140625,0.3662109375,0.1220703125
1781600084.3070674,0.1867477294921875,0.020350714111328123,9.92755718383789,0.244140625,0.06103515625,0.1220703125
1781600084.3110673,0.16160861206054686,0.016759411621093748,9.949104998779296,0.06103515625,0.42724609375,0.06103515625
1781600084.3150673,0.15083470458984374,0.01915361328125,9.949104998779296,-0.06103515625,0.1220703125,-0.18310546875
1781600084.3190672,0.13287819213867186,0.028730419921875,9.967061511230469,0.0,0.06103515625,0.1220703125
1781600084.3230672,0.1352723937988281,0.022744915771484374,9.974244116210937,-0.06103515625,-0.18310546875,-0.06103515625
1781600084.3270671,0.14006079711914063,0.023942016601562498,9.96586441040039,-0.30517578125,-0.30517578125,-0.06103515625
1781600084.331067,0.16519991455078123,0.010773907470703125,9.923965881347655,0.06103515625,-0.67138671875,-0.244140625
1781600084.335067,0.16998831787109375,0.0047884033203125,9.957484704589843,0.0,-0.48828125,-0.1220703125
1781600084.339067,0.1867477294921875,-0.015562310791015624,9.986215124511718,-0.06103515625,-0.8544921875,-0.1220703125
1781600084.343067,0.2059013427734375,0.00718260498046875,9.969455712890625,-0.06103515625,-0.48828125,-0.18310546875
1781600084.3470669,0.21308394775390624,0.00239420166015625,9.937133990478515,-0.18310546875,-0.6103515625,-0.42724609375
1781600084.3510668,0.2262520568847656,0.003591302490234375,9.898826763916015,0.1220703125,-0.6103515625,-0.1220703125
1781600084.3550668,0.2537853759765625,-0.009576806640625,9.9215716796875,-0.1220703125,-0.48828125,-0.3662109375
1781600084.3590667,0.2549824768066406,0.00239420166015625,9.93354268798828,-0.06103515625,-0.18310546875,-0.18310546875
1781600084.3630667,0.2645592834472656,-0.009576806640625,9.909600671386718,0.0,-0.1220703125,-0.06103515625
1781600084.3670666,0.2861070983886719,-0.033518823242187495,9.890447058105469,-0.18310546875,-0.1220703125,-0.1220703125
1781600084.3710666,0.31483751831054685,-0.020350714111328123,9.932345587158203,0.0,0.1220703125,0.0
1781600084.3750665,0.28012159423828126,-0.0143652099609375,9.944316595458984,-0.06103515625,0.1220703125,0.30517578125
1781600084.3790665,0.29568390502929687,-0.020350714111328123,9.93952819213867,-0.06103515625,0.1220703125,0.30517578125
1781600084.3830664,0.26695348510742184,-0.0047884033203125,9.94072529296875,0.42724609375,0.3662109375,0.30517578125
1781600084.3870664,0.25258827514648435,0.0,9.93952819213867,0.42724609375,0.244140625,0.0
1781600084.3910663,0.26336218261718747,0.003591302490234375,9.943119494628906,0.48828125,0.30517578125,0.1220703125
1781600084.3950663,0.23582886352539062,0.005985504150390624,9.937133990478515,0.244140625,0.18310546875,0.18310546875
1781600084.3990662,0.21906945190429686,0.0,9.952696301269532,0.1220703125,0.3662109375,0.06103515625
1781600084.4030662,0.201112939453125,0.020350714111328123,9.955090502929687,0.244140625,0.30517578125,0.244140625
1781600084.407066,0.19512743530273435,0.040701428222656245,9.931148486328125,0.1220703125,0.30517578125,0.06103515625
1781600084.411066,0.19393033447265623,0.031124621582031248,9.958681805419921,0.1220703125,0.18310546875,0.0
1781600084.415066,0.15562310791015624,0.029927520751953124,9.95987890625,0.06103515625,-0.06103515625,-0.1220703125
1781600084.419066,0.13766659545898435,0.025139117431640625,9.962273107910155,-0.244140625,-0.06103515625,-0.1220703125
1781600084.423066,0.15083470458984374,0.025139117431640625,9.95389340209961,0.1220703125,-0.1220703125,0.06103515625
1781600084.4270658,0.16998831787109375,0.02154781494140625,9.964667309570311,0.18310546875,-0.244140625,0.1220703125
1781600084.4310658,0.17118541870117188,0.009576806640625,9.95389340209961,0.06103515625,-0.54931640625,0.06103515625
1781600084.4350657,0.17836802368164062,0.0047884033203125,9.974244116210937,0.18310546875,-0.30517578125,0.0
1781600084.4390657,0.19153613281249998,-0.013168109130859374,9.935936889648437,-0.18310546875,-0.6103515625,0.06103515625
1781600084.4430656,0.16519991455078123,0.00718260498046875,9.9215716796875,-0.1220703125,-0.48828125,0.06103515625
1781600084.4470656,0.181959326171875,0.0383072265625,9.92755718383789,-0.18310546875,-0.30517578125,0.0
1781600084.4510655,0.21068974609375,0.015562310791015624,9.92755718383789,-0.1220703125,-0.18310546875,0.0
1781600084.4550655,0.16879121704101563,-0.0143652099609375,9.916783276367187,0.18310546875,0.0,-0.06103515625
1781600084.4590654,0.1580173095703125,-0.00239420166015625,9.919177478027343,-0.244140625,0.18310546875,0.06103515625
1781600084.4630654,0.181959326171875,-0.022744915771484374,9.935936889648437,-0.18310546875,0.06103515625,0.1220703125
1781600084.4670653,0.19512743530273435,-0.010773907470703125,9.928754284667969,0.0,0.06103515625,0.1220703125
1781600084.4710653,0.18315642700195311,-0.00239420166015625,9.911994873046874,0.244140625,0.06103515625,0.1220703125
1781600084.4750652,0.20231004028320312,0.0143652099609375,9.92755718383789,0.06103515625,0.0,0.18310546875
1781600084.4790652,0.15322890625,-0.0047884033203125,9.947907897949218,-0.06103515625,0.1220703125,0.1220703125
1781600084.4830651,0.18914193115234373,0.0,9.952696301269532,0.18310546875,-0.06103515625,0.06103515625
1781600084.487065,0.19393033447265623,-0.011971008300781249,9.944316595458984,0.30517578125,0.18310546875,-0.06103515625
1781600084.491065,0.229843359375,0.028730419921875,9.945513696289062,0.06103515625,-0.18310546875,0.0
1781600084.495065,0.2214636535644531,0.031124621582031248,9.956287603759765,0.0,-0.244140625,-0.06103515625
1781600084.499065,0.229843359375,0.0143652099609375,9.95389340209961,0.30517578125,-0.1220703125,0.06103515625
1781600084.5030649,0.201112939453125,0.011971008300781249,9.956287603759765,0.06103515625,-0.244140625,-0.30517578125
1781600084.5070648,0.22744915771484372,0.025139117431640625,9.935936889648437,0.06103515625,-0.3662109375,-0.18310546875
1781600084.5110648,0.23822306518554687,0.028730419921875,9.947907897949218,-0.06103515625,-0.1220703125,-0.06103515625
1781600084.5150647,0.258573779296875,-0.011971008300781249,9.937133990478515,0.06103515625,-0.6103515625,0.06103515625
1781600084.5190647,0.277727392578125,-0.02154781494140625,9.931148486328125,-0.06103515625,-0.30517578125,0.0
1781600084.5230646,0.25139117431640623,0.00239420166015625,9.944316595458984,0.0,-0.3662109375,-0.18310546875
1781600084.5270646,0.2705447875976562,0.008379705810546874,9.917980377197265,0.0,-0.18310546875,0.0
1781600084.5310645,0.2741360900878906,0.03591302490234375,9.920374578857421,0.244140625,-0.18310546875,0.06103515625
1781600084.5350645,0.29089550170898437,0.00239420166015625,9.917980377197265,0.18310546875,-0.30517578125,0.0
1781600084.5390644,0.2549824768066406,0.00718260498046875,9.957484704589843,0.0,0.18310546875,-0.06103515625
1781600084.5430644,0.26695348510742184,0.00718260498046875,9.931148486328125,0.18310546875,0.1220703125,0.06103515625
1781600084.5470643,0.2501940734863281,0.016759411621093748,9.909600671386718,-0.18310546875,0.48828125,0.244140625
1781600084.5510643,0.2549824768066406,-0.013168109130859374,9.91438907470703,0.1220703125,0.3662109375,0.06103515625
1781600084.5550642,0.21068974609375,0.016759411621093748,9.926360083007811,0.1220703125,0.3662109375,0.0
1781600084.5590641,0.20829554443359374,0.0,9.94072529296875,0.30517578125,0.48828125,-0.18310546875
1781600084.563064,0.20829554443359374,0.0,9.94072529296875,0.30517578125,0.48828125,-0.18310546875
1781600084.567064,0.19512743530273435,-0.00718260498046875,9.934739788818359,0.0,0.42724609375,0.1220703125
1781600084.571064,0.1592144104003906,0.010773907470703125,9.97783541870117,0.0,0.3662109375,0.06103515625
1781600084.575064,0.1592144104003906,0.010773907470703125,9.97783541870117,0.0,0.3662109375,0.06103515625
1781600084.579064,0.13287819213867186,0.027533319091796873,9.957484704589843,0.18310546875,0.0,0.0
1781600084.5830638,0.13287819213867186,0.027533319091796873,9.957484704589843,0.18310546875,0.0,0.0
1781600084.5870638,0.14963760375976562,0.025139117431640625,9.956287603759765,0.0,-0.244140625,-0.1220703125
1781600084.5910637,0.15203180541992187,0.031124621582031248,9.938331091308592,0.42724609375,-0.06103515625,0.0
1781600084.5950637,0.15083470458984374,0.027533319091796873,9.937133990478515,0.18310546875,-0.244140625,0.06103515625
1781600084.5990636,0.16041151123046873,0.025139117431640625,9.962273107910155,-0.06103515625,-0.48828125,0.0
1781600084.6030636,0.17238251953125,0.00718260498046875,9.95389340209961,-0.1220703125,-0.244140625,-0.06103515625
1781600084.6070635,0.17118541870117188,0.033518823242187495,9.919177478027343,0.06103515625,-0.42724609375,0.18310546875
1781600084.6110635,0.20231004028320312,0.009576806640625,9.937133990478515,0.1220703125,-0.244140625,0.06103515625
1781600084.6150634,0.22026655273437498,0.029927520751953124,9.950302099609374,0.06103515625,-0.30517578125,-0.42724609375
1781600084.6190634,0.22026655273437498,-0.017956512451171875,9.941922393798828,0.0,-0.30517578125,0.06103515625
1781600084.6230633,0.21428104858398436,0.027533319091796873,9.928754284667969,0.244140625,-0.06103515625,-0.18310546875
1781600084.6270633,0.24301146850585936,0.02633621826171875,9.92755718383789,0.0,-0.244140625,0.18310546875
1781600084.6310632,0.20829554443359374,0.0383072265625,9.938331091308592,0.06103515625,0.0,-0.06103515625
1781600084.6350632,0.22385785522460935,0.02154781494140625,9.963470208740233,0.18310546875,0.3662109375,0.3662109375
1781600084.6390631,0.23582886352539062,0.009576806640625,9.957484704589843,0.30517578125,0.1220703125,0.30517578125
1781600084.643063,0.229843359375,0.011971008300781249,9.956287603759765,0.1220703125,0.0,0.1220703125
1781600084.647063,0.21308394775390624,0.015562310791015624,9.93354268798828,-0.18310546875,0.244140625,0.0
1781600084.651063,0.229843359375,0.010773907470703125,9.922768780517577,0.1220703125,0.1220703125,0.18310546875
1781600084.655063,0.22744915771484372,-0.001197100830078125,9.935936889648437,0.1220703125,0.18310546875,0.244140625
1781600084.6590629,0.21068974609375,-0.010773907470703125,9.951499200439452,-0.06103515625,0.0,-0.06103515625
1781600084.6630628,0.2645592834472656,-0.031124621582031248,9.98501802368164,0.0,-0.42724609375,0.30517578125
1781600084.6670628,0.25737667846679685,0.01915361328125,9.976638317871092,-0.1220703125,0.0,0.06103515625
1781600084.6710627,0.2549824768066406,0.0143652099609375,9.95987890625,0.0,-0.244140625,0.0
1781600084.6750627,0.2154781494140625,-0.003591302490234375,9.947907897949218,0.1220703125,-0.18310546875,-0.06103515625
1781600084.6790626,0.22505495605468748,-0.02154781494140625,9.92755718383789,-0.18310546875,-0.06103515625,-0.244140625
1781600084.6830626,0.229843359375,-0.03232172241210937,9.900023864746093,0.0,-0.06103515625,0.1220703125
1781600084.6870625,0.23343466186523437,-0.0047884033203125,9.911994873046874,0.1220703125,-0.244140625,-0.06103515625
1781600084.6910625,0.24181436767578124,0.005985504150390624,9.928754284667969,0.06103515625,-0.1220703125,0.0
1781600084.6950624,0.2346317626953125,0.00239420166015625,9.957484704589843,0.1220703125,-0.18310546875,0.0
1781600084.6990623,0.22744915771484372,0.003591302490234375,9.9215716796875,0.0,-0.06103515625,0.06103515625
1781600084.7030623,0.24301146850585936,-0.009576806640625,9.932345587158203,-0.06103515625,0.06103515625,0.18310546875
1781600084.7070622,0.2442085693359375,-0.009576806640625,9.926360083007811,0.06103515625,-0.1220703125,0.18310546875
1781600084.7110622,0.20470424194335937,-0.0047884033203125,9.923965881347655,0.30517578125,0.0,0.0
1781600084.7150621,0.19512743530273435,-0.034715924072265626,9.934739788818359,0.18310546875,0.30517578125,0.0
1781600084.719062,0.19512743530273435,-0.034715924072265626,9.934739788818359,0.18310546875,0.30517578125,0.0
1781600084.723062,0.1640028137207031,0.034715924072265626,9.950302099609374,0.0,0.18310546875,-0.18310546875
1781600084.727062,0.181959326171875,0.009576806640625,9.91558617553711,0.48828125,0.30517578125,-0.06103515625
1781600084.731062,0.181959326171875,0.009576806640625,9.91558617553711,0.48828125,0.30517578125,-0.06103515625
1781600084.735062,0.15562310791015624,0.037110125732421874,9.919177478027343,0.18310546875,0.30517578125,0.06103515625
1781600084.7390618,0.16041151123046873,0.0383072265625,9.949104998779296,0.1220703125,0.18310546875,0.1220703125
1781600084.7430618,0.15442600708007811,0.033518823242187495,9.96586441040039,-0.06103515625,0.30517578125,0.0
1781600084.7470617,0.1388636962890625,0.015562310791015624,9.982623822021484,-0.1220703125,0.06103515625,-0.18310546875
1781600084.7510617,0.143652099609375,0.0383072265625,9.935936889648437,0.0,-0.244140625,0.0
1781600084.7550616,0.16280571289062498,0.031124621582031248,9.93354268798828,0.06103515625,-0.30517578125,0.18310546875
1781600084.7590616,0.16280571289062498,0.034715924072265626,9.931148486328125,0.1220703125,-0.30517578125,0.1220703125
1781600084.7630615,0.18315642700195311,-0.015562310791015624,9.95389340209961,0.0,-0.54931640625,0.1220703125
1781600084.7670615,0.17597382202148437,-0.005985504150390624,9.943119494628906,-0.06103515625,-0.67138671875,-0.1220703125
1781600084.7710614,0.1975216369628906,0.015562310791015624,9.968258612060547,-0.06103515625,-0.42724609375,-0.18310546875
1781600084.7750614,0.20709844360351562,-0.008379705810546874,9.962273107910155,-0.1220703125,-0.244140625,-0.1220703125
1781600084.7790613,0.21068974609375,0.011971008300781249,9.931148486328125,0.06103515625,-0.42724609375,-0.3662109375
1781600084.7830613,0.23582886352539062,0.0047884033203125,9.925162982177733,-0.06103515625,-0.244140625,-0.244140625
1781600084.7870612,0.2454056701660156,-0.028730419921875,9.955090502929687,0.0,-0.30517578125,-0.244140625
1781600084.7910612,0.2813186950683594,-0.001197100830078125,9.920374578857421,0.18310546875,-0.18310546875,0.0
1781600084.795061,0.26695348510742184,-0.010773907470703125,9.925162982177733,0.06103515625,-0.244140625,0.0
1781600084.799061,0.24061726684570311,-0.0047884033203125,9.94072529296875,-0.06103515625,-0.06103515625,-0.06103515625
1781600084.803061,0.2501940734863281,-0.001197100830078125,9.94671079711914,0.06103515625,0.1220703125,-0.18310546875
1781600084.807061,0.26336218261718747,-0.031124621582031248,9.923965881347655,0.244140625,0.1220703125,0.18310546875
1781600084.811061,0.24301146850585936,-0.003591302490234375,9.928754284667969,0.1220703125,0.06103515625,0.18310546875
1781600084.8150609,0.26695348510742184,0.013168109130859374,9.932345587158203,-0.18310546875,0.06103515625,0.244140625
1781600084.8190608,0.229843359375,-0.013168109130859374,9.931148486328125,0.1220703125,0.1220703125,0.0
1781600084.8230608,0.24181436767578124,0.008379705810546874,9.923965881347655,0.1220703125,0.1220703125,-0.18310546875
1781600084.8270607,0.23343466186523437,-0.0047884033203125,9.928754284667969,0.18310546875,0.1220703125,0.06103515625
1781600084.8310606,0.24779987182617186,0.03950432739257812,9.92755718383789,0.18310546875,0.1220703125,0.1220703125
1781600084.8350606,0.24181436767578124,0.029927520751953124,9.928754284667969,0.42724609375,0.0,-0.1220703125
1781600084.8390605,0.20949264526367187,0.044292730712890624,9.949104998779296,0.1220703125,0.0,-0.06103515625
1781600084.8430605,0.20470424194335937,0.03591302490234375,9.950302099609374,0.06103515625,0.18310546875,0.0
1781600084.8470604,0.1771709228515625,0.028730419921875,9.941922393798828,-0.06103515625,0.06103515625,0.0
1781600084.8510604,0.1771709228515625,0.023942016601562498,9.949104998779296,0.06103515625,0.18310546875,0.06103515625
1781600084.8550603,0.18555062866210936,0.04189852905273437,9.931148486328125,0.0,-0.1220703125,0.30517578125
1781600084.8590603,0.18315642700195311,-0.013168109130859374,9.934739788818359,0.244140625,-0.1220703125,0.06103515625
1781600084.8630602,0.181959326171875,0.008379705810546874,9.94671079711914,0.0,-0.1220703125,0.0
1781600084.8670602,0.16998831787109375,0.00718260498046875,9.94671079711914,-0.1220703125,-0.30517578125,-0.18310546875
1781600084.8710601,0.1771709228515625,0.013168109130859374,9.962273107910155,0.06103515625,-0.244140625,0.06103515625
1781600084.87506,0.16041151123046873,0.0143652099609375,9.947907897949218,-0.06103515625,0.06103515625,0.06103515625
1781600084.87906,0.181959326171875,0.011971008300781249,9.935936889648437,0.18310546875,-0.06103515625,0.06103515625
1781600084.88306,0.16879121704101563,-0.008379705810546874,9.94072529296875,-0.06103515625,0.1220703125,0.0
1781600084.88706,0.17477672119140625,-0.015562310791015624,9.91558617553711,0.06103515625,0.18310546875,-0.06103515625
1781600084.8910599,0.181959326171875,0.003591302490234375,9.932345587158203,0.06103515625,0.3662109375,-0.06103515625
1781600084.8950598,0.18315642700195311,-0.008379705810546874,9.949104998779296,0.30517578125,0.1220703125,-0.244140625
1781600084.8990598,0.1879448303222656,0.0,9.956287603759765,-0.18310546875,0.244140625,-0.06103515625
1781600084.9030597,0.17836802368164062,-0.029927520751953124,9.97783541870117,0.1220703125,0.1220703125,0.1220703125
1781600084.9070597,0.17956512451171874,-0.020350714111328123,9.94671079711914,0.06103515625,0.0,0.0
1781600084.9110596,0.1975216369628906,0.01915361328125,9.95389340209961,0.06103515625,0.244140625,0.244140625
1781600084.9150596,0.19153613281249998,0.03232172241210937,9.935936889648437,-0.1220703125,-0.1220703125,-0.1220703125
1781600084.9190595,0.21428104858398436,0.025139117431640625,9.93952819213867,0.18310546875,0.0,0.244140625
1781600084.9230595,0.20709844360351562,-0.001197100830078125,9.952696301269532,0.1220703125,-0.18310546875,0.1220703125
1781600084.9270594,0.22505495605468748,0.013168109130859374,9.955090502929687,-0.06103515625,-0.244140625,0.1220703125
1781600084.9310594,0.22505495605468748,0.016759411621093748,9.963470208740233,0.06103515625,-0.18310546875,0.1220703125
1781600084.9350593,0.21906945190429686,0.03950432739257812,9.944316595458984,0.244140625,-0.30517578125,-0.1220703125
1781600084.9390593,0.2645592834472656,0.0143652099609375,9.963470208740233,0.06103515625,-0.06103515625,0.1220703125
1781600084.9430592,0.22505495605468748,-0.009576806640625,9.957484704589843,0.0,0.0,-0.06103515625
1781600084.9470592,0.22744915771484372,0.022744915771484374,9.934739788818359,-0.06103515625,-0.18310546875,-0.1220703125
1781600084.951059,0.23702596435546874,-0.015562310791015624,9.907206469726562,0.1220703125,0.0,-0.06103515625
1781600084.955059,0.239420166015625,-0.0047884033203125,9.911994873046874,0.0,0.06103515625,-0.1220703125
1781600084.959059,0.2549824768066406,-0.0047884033203125,9.937133990478515,0.18310546875,0.06103515625,0.06103515625
1781600084.963059,0.24181436767578124,0.010773907470703125,9.951499200439452,0.1220703125,-0.244140625,-0.18310546875
1781600084.967059,0.2501940734863281,0.00718260498046875,9.95389340209961,-0.1220703125,-0.06103515625,0.0
1781600084.9710588,0.2214636535644531,0.011971008300781249,9.934739788818359,0.18310546875,0.06103515625,0.06103515625
1781600084.9750588,0.24660277099609373,0.025139117431640625,9.907206469726562,0.06103515625,0.06103515625,-0.1220703125
1781600084.9790587,0.24061726684570311,0.0047884033203125,9.931148486328125,0.30517578125,0.1220703125,-0.06103515625
1781600084.9830587,0.1975216369628906,-0.02633621826171875,9.934739788818359,0.18310546875,0.18310546875,0.244140625
1781600084.9870586,0.20829554443359374,-0.0143652099609375,9.931148486328125,0.06103515625,0.06103515625,0.18310546875
1781600084.9910586,0.19991583862304688,-0.009576806640625,9.922768780517577,0.0,0.06103515625,0.244140625
1781600084.9950585,0.20709844360351562,0.005985504150390624,9.926360083007811,0.1220703125,0.1220703125,-0.18310546875
1781600084.9990585,0.22505495605468748,0.010773907470703125,9.945513696289062,0.30517578125,0.1220703125,0.42724609375
1781600085.0030584,0.17238251953125,0.0047884033203125,9.937133990478515,0.0,-0.06103515625,0.0
1781600085.0070584,0.18555062866210936,-0.01915361328125,9.970652813720703,-0.06103515625,-0.18310546875,0.1220703125
1781600085.0110583,0.15083470458984374,-0.009576806640625,9.956287603759765,0.06103515625,-0.06103515625,0.0
1781600085.0150583,0.17357962036132812,0.031124621582031248,9.932345587158203,0.18310546875,-0.06103515625,-0.1220703125
1781600085.0190582,0.16280571289062498,0.0383072265625,9.941922393798828,0.1220703125,-0.06103515625,-0.06103515625
1781600085.0230582,0.16759411621093748,0.027533319091796873,9.94671079711914,-0.18310546875,0.06103515625,0.06103515625
1781600085.0270581,0.16519991455078123,-0.017956512451171875,9.961076007080077,0.18310546875,-0.3662109375,0.06103515625
1781600085.031058,0.16041151123046873,0.001197100830078125,9.95389340209961,0.0,-0.30517578125,0.0
1781600085.035058,0.17956512451171874,0.028730419921875,9.934739788818359,0.1220703125,-0.30517578125,-0.18310546875
1781600085.039058,0.181959326171875,0.008379705810546874,9.925162982177733,0.0,0.0,0.1220703125
1781600085.043058,0.18914193115234373,0.016759411621093748,9.957484704589843,0.1220703125,0.0,0.0
1781600085.0470579,0.1879448303222656,-0.00718260498046875,9.955090502929687,0.0,-0.18310546875,-0.06103515625
1781600085.0510578,0.19632453613281248,-0.001197100830078125,9.949104998779296,-0.06103515625,-0.1220703125,-0.244140625
1781600085.0550578,0.19512743530273435,0.005985504150390624,9.941922393798828,0.18310546875,-0.18310546875,0.06103515625
1781600085.0590577,0.2059013427734375,0.04668693237304687,9.951499200439452,0.06103515625,0.06103515625,0.06103515625
1781600085.0630577,0.20949264526367187,0.013168109130859374,9.958681805419921,0.06103515625,-0.1220703125,0.0
1781600085.0670576,0.20829554443359374,0.003591302490234375,9.973047015380859,0.06103515625,0.1220703125,0.1220703125
1781600085.0710576,0.22026655273437498,0.03591302490234375,9.950302099609374,-0.244140625,-0.1220703125,0.1220703125
1781600085.0750575,0.22026655273437498,0.034715924072265626,9.950302099609374,0.244140625,0.1220703125,0.0
1781600085.0790575,0.229843359375,-0.003591302490234375,9.934739788818359,0.06103515625,-0.1220703125,-0.06103515625
1781600085.0830574,0.2609679809570312,-0.008379705810546874,9.934739788818359,0.18310546875,-0.18310546875,0.18310546875
1781600085.0870574,0.22744915771484372,-0.022744915771484374,9.970652813720703,0.06103515625,-0.3662109375,0.06103515625
1781600085.0910573,0.22744915771484372,-0.03591302490234375,9.94671079711914,0.1220703125,0.06103515625,-0.06103515625
1781600085.0950572,0.2454056701660156,-0.010773907470703125,9.934739788818359,0.0,-0.42724609375,-0.18310546875
1781600085.0990572,0.2609679809570312,0.02154781494140625,9.904812268066406,0.244140625,-0.18310546875,-0.1220703125
1781600085.1030571,0.24660277099609373,0.0047884033203125,9.916783276367187,0.06103515625,-0.1220703125,0.0
1781600085.107057,0.21787235107421873,-0.020350714111328123,9.941922393798828,0.0,-0.06103515625,0.06103515625
1781600085.111057,0.25139117431640623,-0.031124621582031248,9.931148486328125,-0.1220703125,0.0,-0.06103515625
1781600085.115057,0.2454056701660156,0.010773907470703125,9.916783276367187,0.1220703125,0.18310546875,0.0
1781600085.119057,0.22744915771484372,0.01915361328125,9.919177478027343,0.06103515625,-0.06103515625,0.1220703125
1781600085.123057,0.239420166015625,0.00718260498046875,9.923965881347655,0.18310546875,0.0,0.42724609375
1781600085.1270568,0.22505495605468748,-0.003591302490234375,9.935936889648437,0.1220703125,-0.06103515625,-0.06103515625
1781600085.1310568,0.21068974609375,-0.015562310791015624,9.917980377197265,0.0,0.1220703125,0.0
1781600085.1350567,0.23343466186523437,-0.001197100830078125,9.932345587158203,0.1220703125,0.18310546875,0.06103515625
1781600085.1390567,0.1867477294921875,0.016759411621093748,9.920374578857421,0.30517578125,0.244140625,0.06103515625
1781600085.1430566,0.17597382202148437,0.003591302490234375,9.93952819213867,0.0,0.0,0.0
1781600085.1470566,0.16879121704101563,0.00718260498046875,9.95987890625,0.1220703125,0.18310546875,0.1220703125
1781600085.1510565,0.1879448303222656,0.025139117431640625,9.97783541870117,0.18310546875,0.06103515625,0.0
1781600085.1550565,0.1975216369628906,0.0526724365234375,9.974244116210937,0.18310546875,0.18310546875,-0.06103515625
1781600085.1590564,0.18076222534179687,0.0143652099609375,9.956287603759765,0.18310546875,0.06103515625,-0.1220703125
1781600085.1630564,0.16160861206054686,0.00718260498046875,9.969455712890625,0.0,0.06103515625,-0.18310546875
1781600085.1670563,0.18076222534179687,0.01915361328125,9.929951385498047,-0.06103515625,0.06103515625,-0.18310546875
1781600085.1710563,0.18555062866210936,0.008379705810546874,9.950302099609374,0.18310546875,-0.06103515625,-0.06103515625
1781600085.1750562,0.17238251953125,0.015562310791015624,9.935936889648437,0.18310546875,-0.244140625,-0.06103515625
1781600085.1790562,0.143652099609375,0.040701428222656245,9.943119494628906,-0.06103515625,0.06103515625,-0.06103515625
1781600085.183056,0.19153613281249998,0.010773907470703125,9.982623822021484,0.1220703125,-0.3662109375,0.0
1781600085.187056,0.1580173095703125,0.0,9.995791931152343,-0.1220703125,-0.18310546875,0.0
1781600085.191056,0.20350714111328125,0.0047884033203125,9.967061511230469,-0.18310546875,-0.30517578125,0.06103515625
1781600085.195056,0.1867477294921875,0.029927520751953124,9.938331091308592,0.1220703125,-0.18310546875,0.0
1781600085.199056,0.21068974609375,0.009576806640625,9.945513696289062,0.1220703125,-0.30517578125,0.1220703125
1781600085.2030559,0.21188684692382811,-0.00718260498046875,9.911994873046874,0.18310546875,-0.06103515625,-0.06103515625
1781600085.2070558,0.20709844360351562,0.0047884033203125,9.923965881347655,0.18310546875,-0.244140625,0.0
1781600085.2110558,0.19991583862304688,0.005985504150390624,9.95389340209961,0.18310546875,-0.06103515625,-0.1220703125
1781600085.2150557,0.2214636535644531,0.023942016601562498,9.950302099609374,0.06103515625,-0.1220703125,0.0
1781600085.2190557,0.2501940734863281,-0.001197100830078125,9.95389340209961,0.0,0.1220703125,0.06103515625
1781600085.2230556,0.23822306518554687,0.0047884033203125,9.974244116210937,-0.06103515625,0.0,-0.1220703125
1781600085.2270555,0.23223756103515625,0.033518823242187495,9.97783541870117,0.06103515625,0.18310546875,-0.18310546875
1781600085.2310555,0.26216508178710934,-0.013168109130859374,9.929951385498047,0.1220703125,0.06103515625,-0.06103515625
1781600085.2350554,0.2262520568847656,-0.02633621826171875,9.913191973876952,0.18310546875,0.0,-0.06103515625
1781600085.2390554,0.24899697265624998,-0.01915361328125,9.90122096557617,0.244140625,-0.06103515625,0.0
1781600085.2430553,0.24660277099609373,-0.001197100830078125,9.903615167236328,0.1220703125,-0.244140625,0.1220703125
1781600085.2470553,0.239420166015625,0.020350714111328123,9.941922393798828,-0.06103515625,-0.1220703125,-0.1220703125
1781600085.2510552,0.2059013427734375,0.022744915771484374,9.962273107910155,0.244140625,-0.06103515625,0.18310546875
1781600085.2550552,0.26336218261718747,0.03232172241210937,9.991003527832031,0.06103515625,-0.18310546875,-0.1220703125
1781600085.2590551,0.2442085693359375,0.010773907470703125,9.983820922851562,-0.06103515625,-0.3662109375,-0.244140625
1781600085.263055,0.23702596435546874,-0.00239420166015625,9.928754284667969,0.0,-0.06103515625,0.1220703125
1781600085.267055,0.21787235107421873,-0.011971008300781249,9.917980377197265,0.06103515625,-0.1220703125,0.06103515625
1781600085.271055,0.20350714111328125,-0.016759411621093748,9.897629663085937,0.0,0.18310546875,0.1220703125
1781600085.275055,0.2166752502441406,-0.013168109130859374,9.919177478027343,0.3662109375,0.06103515625,0.06103515625
1781600085.2790549,0.1927332336425781,0.001197100830078125,9.925162982177733,0.1220703125,0.06103515625,0.0
1781600085.2830548,0.19512743530273435,0.011971008300781249,9.976638317871092,0.244140625,0.0,-0.1220703125
1781600085.2870548,0.21906945190429686,0.00718260498046875,9.97903251953125,0.18310546875,0.1220703125,-0.1220703125
1781600085.2910547,0.17238251953125,0.020350714111328123,9.951499200439452,0.0,0.30517578125,-0.1220703125
1781600085.2950547,0.20350714111328125,0.027533319091796873,9.951499200439452,0.30517578125,-0.06103515625,0.06103515625
1781600085.2990546,0.21068974609375,0.031124621582031248,9.93354268798828,0.0,0.18310546875,0.244140625
1781600085.3030546,0.16759411621093748,-0.023942016601562498,9.928754284667969,0.1220703125,0.1220703125,0.0
1781600085.3070545,0.18315642700195311,0.001197100830078125,9.91438907470703,0.1220703125,-0.06103515625,0.06103515625
1781600085.3110545,0.18555062866210936,-0.001197100830078125,9.97184991455078,0.1220703125,0.06103515625,0.06103515625
1781600085.3150544,0.1592144104003906,-0.003591302490234375,9.944316595458984,0.244140625,-0.18310546875,0.0
1781600085.3190544,0.17357962036132812,-0.003591302490234375,9.95389340209961,0.244140625,0.06103515625,0.06103515625
1781600085.3230543,0.15203180541992187,-0.009576806640625,10.014945544433592,0.06103515625,-0.06103515625,0.1220703125
1781600085.3270543,0.1879448303222656,-0.001197100830078125,9.994594830322265,0.1220703125,-0.244140625,0.18310546875
1781600085.3310542,0.1879448303222656,-0.005985504150390624,9.934739788818359,-0.1220703125,-0.30517578125,-0.244140625
1781600085.3350542,0.181959326171875,0.015562310791015624,9.925162982177733,0.0,-0.30517578125,0.1220703125
1781600085.339054,0.17477672119140625,0.037110125732421874,9.950302099609374,0.1220703125,-0.30517578125,-0.1220703125
1781600085.343054,0.19632453613281248,0.005985504150390624,9.92755718383789,0.0,-0.1220703125,0.244140625
1781600085.347054,0.20231004028320312,0.009576806640625,9.923965881347655,0.1220703125,-0.244140625,0.18310546875
1781600085.351054,0.21906945190429686,0.005985504150390624,9.987412225341796,-0.1220703125,-0.1220703125,0.18310546875
1781600085.355054,0.24779987182617186,0.01915361328125,9.982623822021484,0.06103515625,-0.30517578125,0.06103515625
1781600085.3590539,0.22505495605468748,0.03232172241210937,9.951499200439452,0.18310546875,-0.06103515625,0.18310546875
1781600085.3630538,0.22744915771484372,0.00239420166015625,9.94072529296875,0.06103515625,-0.1220703125,-0.3662109375
1781600085.3670537,0.22744915771484372,-0.001197100830078125,9.955090502929687,0.06103515625,0.18310546875,-0.1220703125
1781600085.3710537,0.23223756103515625,0.00718260498046875,9.919177478027343,0.3662109375,0.0,0.0
1781600085.3750536,0.2262520568847656,0.023942016601562498,9.90840357055664,0.0,0.0,0.244140625
1781600085.3790536,0.229843359375,-0.00718260498046875,9.938331091308592,0.06103515625,0.0,-0.06103515625
1781600085.3830535,0.22505495605468748,-0.003591302490234375,9.969455712890625,0.1220703125,-0.06103515625,0.18310546875
1781600085.3870535,0.2154781494140625,0.016759411621093748,9.944316595458984,0.06103515625,-0.244140625,-0.06103515625
1781600085.3910534,0.2346317626953125,0.02154781494140625,9.947907897949218,0.30517578125,0.06103515625,0.06103515625
1781600085.3950534,0.22744915771484372,0.02633621826171875,9.93952819213867,-0.06103515625,0.06103515625,0.18310546875
1781600085.3990533,0.2166752502441406,-0.00239420166015625,9.892841259765625,0.0,0.1220703125,-0.244140625
1781600085.4030256,0.1975216369628906,-0.015562310791015624,9.93354268798828,-0.1220703125,-0.06103515625,0.18310546875
1781600085.4070256,0.22026655273437498,-0.015562310791015624,9.95389340209961,0.1220703125,-0.06103515625,0.0
1781600085.4110255,0.22266075439453123,0.00718260498046875,9.976638317871092,0.1220703125,-0.06103515625,0.06103515625
1781600085.4150255,0.22266075439453123,-0.001197100830078125,9.93952819213867,0.18310546875,0.06103515625,-0.1220703125
1781600085.4190254,0.201112939453125,-0.025139117431640625,9.9215716796875,-0.1220703125,-0.18310546875,-0.1220703125
1781600085.4230254,0.19871873779296872,0.02154781494140625,9.951499200439452,-0.30517578125,0.06103515625,-0.06103515625
1781600085.4270253,0.18914193115234373,0.013168109130859374,9.983820922851562,0.0,0.0,-0.06103515625
1781600085.4310253,0.19512743530273435,-0.016759411621093748,9.89523546142578,0.18310546875,-0.18310546875,-0.06103515625
1781600085.4350252,0.19512743530273435,0.0,9.894038360595703,0.06103515625,0.0,-0.06103515625
1781600085.4390252,0.21068974609375,0.013168109130859374,9.97903251953125,0.244140625,-0.1220703125,0.18310546875
1781600085.443025,0.19632453613281248,0.020350714111328123,9.99220062866211,0.06103515625,0.0,0.06103515625
1781600085.447025,0.1867477294921875,0.009576806640625,9.90840357055664,0.244140625,0.06103515625,0.18310546875
1781600085.451025,0.17477672119140625,0.0143652099609375,9.941922393798828,0.0,0.0,0.18310546875
1781600085.455025,0.17357962036132812,0.04668693237304687,10.005368737792969,0.42724609375,0.18310546875,0.1220703125
1781600085.459025,0.1927332336425781,0.013168109130859374,9.963470208740233,0.1220703125,-0.06103515625,-0.18310546875
1781600085.4630249,0.20350714111328125,-0.00239420166015625,9.923965881347655,0.1220703125,-0.06103515625,0.18310546875
1781600085.4670248,0.17238251953125,0.027533319091796873,9.932345587158203,-0.1220703125,-0.1220703125,0.1220703125
1781600085.4710248,0.19632453613281248,0.011971008300781249,9.92755718383789,0.18310546875,-0.244140625,0.1220703125
1781600085.4750247,0.20709844360351562,0.009576806640625,9.919177478027343,0.1220703125,0.0,0.0
1781600085.4790246,0.17836802368164062,0.027533319091796873,9.956287603759765,0.1220703125,-0.1220703125,0.1220703125
1781600085.4830246,0.16759411621093748,0.05027823486328125,9.994594830322265,0.244140625,-0.06103515625,-0.18310546875
1781600085.4870245,0.16280571289062498,0.022744915771484374,9.941922393798828,-0.06103515625,-0.30517578125,-0.1220703125
1781600085.4910245,0.1927332336425781,0.013168109130859374,9.911994873046874,0.06103515625,-0.244140625,0.0
1781600085.4950244,0.20709844360351562,-0.013168109130859374,9.945513696289062,-0.18310546875,-0.18310546875,0.06103515625
1781600085.4990244,0.2059013427734375,0.00718260498046875,9.947907897949218,0.0,-0.244140625,-0.06103515625
1781600085.5030243,0.22385785522460935,0.0047884033203125,9.92755718383789,0.06103515625,-0.18310546875,-0.06103515625
1781600085.5070243,0.23702596435546874,0.0143652099609375,9.941922393798828,-0.18310546875,-0.30517578125,-0.06103515625
1781600085.5110242,0.21068974609375,-0.001197100830078125,9.94671079711914,0.06103515625,-0.18310546875,-0.1220703125
1781600085.5150242,0.21787235107421873,-0.005985504150390624,9.941922393798828,0.30517578125,-0.244140625,0.1220703125
1781600085.5190241,0.21787235107421873,0.001197100830078125,9.917980377197265,0.244140625,-0.06103515625,0.0
1781600085.523024,0.22505495605468748,-0.00718260498046875,9.941922393798828,-0.06103515625,-0.06103515625,0.06103515625
1781600085.527024,0.23822306518554687,0.013168109130859374,9.951499200439452,-0.06103515625,-0.1220703125,0.1220703125
1781600085.531024,0.2442085693359375,0.008379705810546874,9.935936889648437,0.06103515625,-0.1220703125,-0.06103515625
1781600085.535024,0.21787235107421873,0.02154781494140625,9.903615167236328,0.244140625,-0.06103515625,0.1220703125
1781600085.5390239,0.2346317626953125,-0.011971008300781249,9.91558617553711,0.244140625,0.244140625,0.18310546875
1781600085.5430238,0.23582886352539062,0.020350714111328123,9.957484704589843,0.18310546875,0.1220703125,-0.244140625
1781600085.5470238,0.20231004028320312,0.03232172241210937,9.955090502929687,0.1220703125,0.1220703125,-0.06103515625
1781600085.5510237,0.20231004028320312,-0.0047884033203125,9.943119494628906,0.1220703125,0.1220703125,-0.1220703125
1781600085.5550237,0.24301146850585936,-0.017956512451171875,9.917980377197265,-0.06103515625,0.18310546875,0.06103515625
1781600085.5590236,0.21068974609375,-0.001197100830078125,9.967061511230469,0.18310546875,0.244140625,0.0
1781600085.5630236,0.22744915771484372,0.0,9.93952819213867,0.18310546875,0.06103515625,0.18310546875
1781600085.5670235,0.21428104858398436,0.005985504150390624,9.898826763916015,0.1220703125,0.06103515625,-0.06103515625
1781600085.5710235,0.19033903198242186,0.0047884033203125,9.925162982177733,0.1220703125,-0.1220703125,-0.30517578125
1781600085.5750234,0.20470424194335937,0.015562310791015624,9.976638317871092,0.0,0.1220703125,0.06103515625
1781600085.5790234,0.20231004028320312,0.0047884033203125,9.951499200439452,0.06103515625,-0.06103515625,-0.06103515625
1781600085.5830233,0.181959326171875,0.009576806640625,9.919177478027343,0.18310546875,0.1220703125,0.0
1781600085.5870233,0.18076222534179687,0.027533319091796873,9.95389340209961,0.1220703125,-0.1220703125,0.0
1781600085.5910232,0.201112939453125,0.003591302490234375,9.981426721191406,0.18310546875,-0.1220703125,0.0
1781600085.5950232,0.16879121704101563,-0.013168109130859374,9.93952819213867,0.06103515625,-0.06103515625,-0.1220703125
1781600085.599023,0.17357962036132812,-0.0047884033203125,9.938331091308592,0.06103515625,-0.18310546875,-0.06103515625
1781600085.603023,0.18555062866210936,-0.0047884033203125,9.956287603759765,0.1220703125,-0.18310546875,0.0
1781600085.607023,0.18555062866210936,0.020350714111328123,9.937133990478515,-0.06103515625,-0.3662109375,0.06103515625
1781600085.611023,0.1771709228515625,0.020350714111328123,9.91438907470703,0.18310546875,-0.18310546875,0.06103515625
1781600085.615023,0.1867477294921875,0.0,9.943119494628906,0.06103515625,-0.244140625,0.0
1781600085.6190228,0.18555062866210936,-0.016759411621093748,9.98501802368164,0.0,-0.1220703125,0.0
1781600085.6230228,0.19512743530273435,-0.00239420166015625,9.929951385498047,0.0,-0.1220703125,0.06103515625
1781600085.6270227,0.181959326171875,0.009576806640625,9.931148486328125,0.18310546875,0.0,-0.06103515625
1781600085.6310227,0.2214636535644531,0.013168109130859374,9.937133990478515,0.1220703125,0.06103515625,-0.06103515625
1781600085.6350226,0.20949264526367187,0.001197100830078125,9.94072529296875,0.06103515625,-0.1220703125,0.06103515625
1781600085.6390226,0.21308394775390624,-0.02154781494140625,9.925162982177733,0.18310546875,-0.18310546875,-0.1220703125
1781600085.6430225,0.19871873779296872,-0.00239420166015625,9.949104998779296,-0.1220703125,-0.1220703125,0.06103515625
1781600085.6470225,0.23223756103515625,0.016759411621093748,9.93952819213867,0.1220703125,-0.18310546875,0.18310546875
1781600085.6510224,0.22744915771484372,0.0047884033203125,9.917980377197265,-0.1220703125,-0.18310546875,0.06103515625
1781600085.6550224,0.22744915771484372,-0.003591302490234375,9.957484704589843,0.06103515625,-0.3662109375,-0.06103515625
1781600085.6590223,0.24301146850585936,0.011971008300781249,9.970652813720703,0.18310546875,0.06103515625,-0.18310546875
1781600085.6630223,0.23702596435546874,0.033518823242187495,9.925162982177733,-0.1220703125,-0.18310546875,-0.1220703125
1781600085.6670222,0.23223756103515625,0.016759411621093748,9.909600671386718,0.1220703125,-0.06103515625,0.1220703125
1781600085.6710222,0.24181436767578124,0.0,9.916783276367187,0.244140625,-0.18310546875,0.18310546875
1781600085.6750221,0.2442085693359375,0.016759411621093748,9.934739788818359,0.06103515625,-0.06103515625,0.0
1781600085.6790102,0.24181436767578124,0.013168109130859374,9.95987890625,-0.1220703125,-0.06103515625,0.06103515625
1781600085.68301,0.23343466186523437,0.009576806640625,9.950302099609374,0.18310546875,0.1220703125,0.18310546875
1781600085.6869555,0.21068974609375,0.00718260498046875,9.93354268798828,0.06103515625,0.06103515625,0.244140625
1781600085.6909554,0.24061726684570311,0.00718260498046875,9.93952819213867,0.0,0.0,0.06103515625
1781600085.6949553,0.21428104858398436,-0.010773907470703125,9.929951385498047,0.0,0.06103515625,-0.06103515625
1781600085.6989553,0.23223756103515625,-0.016759411621093748,9.945513696289062,0.06103515625,-0.06103515625,0.06103515625
1781600085.7029552,0.24301146850585936,0.023942016601562498,9.949104998779296,-0.06103515625,-0.244140625,0.1220703125
1781600085.7069552,0.21308394775390624,0.015562310791015624,9.943119494628906,-0.06103515625,-0.06103515625,0.0
1781600085.7109551,0.21188684692382811,0.009576806640625,9.934739788818359,-0.06103515625,0.06103515625,0.06103515625
1781600085.714955,0.19153613281249998,-0.00718260498046875,9.919177478027343,-0.06103515625,0.18310546875,0.06103515625
1781600085.718955,0.20470424194335937,-0.010773907470703125,9.919177478027343,0.18310546875,0.0,-0.06103515625
1781600085.722955,0.18555062866210936,-0.020350714111328123,9.93952819213867,0.0,0.244140625,-0.18310546875
1781600085.726934,0.17956512451171874,0.013168109130859374,9.958681805419921,-0.1220703125,0.06103515625,-0.18310546875
1781600085.730934,0.18315642700195311,-0.001197100830078125,9.97184991455078,-0.06103515625,0.0,0.06103515625
1781600085.7349339,0.16160861206054686,-0.020350714111328123,9.957484704589843,0.06103515625,0.1220703125,-0.18310546875
1781600085.7389338,0.16759411621093748,-0.001197100830078125,9.952696301269532,-0.06103515625,-0.06103515625,0.1220703125
1781600085.7429338,0.17118541870117188,-0.0047884033203125,9.938331091308592,0.1220703125,-0.06103515625,-0.1220703125
1781600085.7469337,0.201112939453125,-0.016759411621093748,9.938331091308592,0.18310546875,-0.06103515625,-0.1220703125
1781600085.7509336,0.1879448303222656,0.009576806640625,9.93952819213867,0.18310546875,0.1220703125,0.06103515625
1781600085.7549336,0.17477672119140625,0.00718260498046875,9.913191973876952,-0.1220703125,-0.244140625,-0.06103515625
1781600085.7589335,0.1867477294921875,-0.00239420166015625,9.934739788818359,0.1220703125,-0.06103515625,0.1220703125
1781600085.7629335,0.201112939453125,0.04189852905273437,9.97783541870117,-0.1220703125,-0.30517578125,-0.244140625
1781600085.7669334,0.20829554443359374,0.029927520751953124,9.967061511230469,0.0,-0.06103515625,0.244140625
1781600085.7709334,0.19991583862304688,-0.00239420166015625,9.929951385498047,-0.06103515625,-0.18310546875,0.30517578125
1781600085.7749333,0.18315642700195311,0.0,9.920374578857421,0.244140625,0.06103515625,0.1220703125
1781600085.7789333,0.1975216369628906,-0.025139117431640625,9.919177478027343,0.244140625,-0.1220703125,0.06103515625
1781600085.7829332,0.20949264526367187,-0.003591302490234375,9.909600671386718,-0.06103515625,-0.06103515625,0.0
1781600085.7869332,0.201112939453125,-0.017956512451171875,9.906009368896484,0.06103515625,0.06103515625,0.06103515625
1781600085.7909331,0.2154781494140625,0.005985504150390624,9.928754284667969,0.1220703125,0.0,-0.1220703125
1781600085.794933,0.22266075439453123,0.008379705810546874,9.964667309570311,0.18310546875,-0.06103515625,0.0
1781600085.798933,0.21308394775390624,-0.003591302490234375,9.97184991455078,-0.06103515625,-0.18310546875,0.244140625
1781600085.802933,0.25139117431640623,0.029927520751953124,9.950302099609374,-0.18310546875,-0.1220703125,-0.1220703125
1781600085.806933,0.23104046020507812,0.009576806640625,9.949104998779296,-0.244140625,0.1220703125,0.30517578125
1781600085.8109329,0.22385785522460935,0.011971008300781249,9.943119494628906,-0.18310546875,-0.18310546875,0.0
1781600085.8149328,0.23822306518554687,-0.010773907470703125,9.926360083007811,-0.1220703125,-0.06103515625,0.1220703125
1781600085.8189328,0.239420166015625,-0.008379705810546874,9.923965881347655,0.18310546875,-0.244140625,-0.06103515625
1781600085.8229327,0.22744915771484372,-0.010773907470703125,9.94072529296875,0.18310546875,0.06103515625,-0.06103515625
1781600085.8269327,0.22744915771484372,-0.008379705810546874,9.91558617553711,0.244140625,-0.3662109375,0.06103515625
1781600085.8309326,0.239420166015625,-0.029927520751953124,9.949104998779296,0.18310546875,-0.06103515625,0.0
1781600085.8349326,0.229843359375,0.01915361328125,9.951499200439452,0.06103515625,0.06103515625,0.18310546875
1781600085.8389325,0.21787235107421873,0.020350714111328123,9.961076007080077,-0.18310546875,0.1220703125,0.1220703125
1781600085.8429325,0.22744915771484372,0.003591302490234375,9.945513696289062,0.18310546875,-0.30517578125,-0.1220703125
1781600085.8469324,0.21188684692382811,0.013168109130859374,9.929951385498047,0.18310546875,-0.06103515625,-0.06103515625
1781600085.8509324,0.23104046020507812,0.028730419921875,9.891644158935547,-0.1220703125,0.18310546875,-0.18310546875
1781600085.8549323,0.22266075439453123,0.01915361328125,9.922768780517577,-0.06103515625,0.0,-0.1220703125
1781600085.8589323,0.2059013427734375,0.009576806640625,9.955090502929687,-0.06103515625,-0.06103515625,0.06103515625
1781600085.8629322,0.18076222534179687,0.0,9.951499200439452,0.06103515625,0.244140625,0.06103515625
1781600085.8669322,0.19632453613281248,0.015562310791015624,9.962273107910155,-0.06103515625,0.244140625,0.06103515625
1781600085.870932,0.1927332336425781,-0.005985504150390624,9.961076007080077,0.244140625,0.18310546875,-0.244140625
1781600085.874932,0.19153613281249998,0.02633621826171875,9.957484704589843,0.1220703125,-0.06103515625,-0.18310546875
1781600085.878932,0.19991583862304688,-0.008379705810546874,9.935936889648437,0.244140625,-0.1220703125,0.1220703125
1781600085.882932,0.1927332336425781,0.0047884033203125,9.929951385498047,-0.244140625,0.06103515625,0.0
1781600085.886932,0.17956512451171874,-0.005985504150390624,9.89523546142578,-0.06103515625,-0.1220703125,-0.1220703125
1781600085.8909318,0.19393033447265623,0.010773907470703125,9.93354268798828,0.1220703125,-0.244140625,-0.1220703125
1781600085.8949318,0.1879448303222656,0.044292730712890624,9.963470208740233,-0.18310546875,0.0,0.0
1781600085.8989317,0.17477672119140625,0.047884033203124995,9.976638317871092,-0.06103515625,0.0,0.06103515625
1781600085.9029317,0.18435352783203124,0.016759411621093748,9.956287603759765,0.18310546875,-0.30517578125,0.0
1781600085.9069316,0.1867477294921875,-0.001197100830078125,9.949104998779296,-0.1220703125,-0.1220703125,-0.06103515625
1781600085.9109316,0.1927332336425781,-0.031124621582031248,9.937133990478515,0.06103515625,-0.3662109375,0.0
1781600085.9149315,0.17357962036132812,-0.020350714111328123,9.92755718383789,0.06103515625,-0.244140625,-0.06103515625
1781600085.9189315,0.20470424194335937,-0.02633621826171875,9.906009368896484,0.18310546875,-0.06103515625,0.1220703125
1781600085.9229314,0.22385785522460935,0.023942016601562498,9.950302099609374,0.1220703125,-0.67138671875,-0.1220703125
1781600085.9269314,0.2154781494140625,0.001197100830078125,9.967061511230469,-0.06103515625,-0.42724609375,-0.244140625
1781600085.9309313,0.19871873779296872,0.029927520751953124,9.949104998779296,0.244140625,-0.48828125,-0.1220703125
1781600085.9349313,0.22744915771484372,0.011971008300781249,9.94072529296875,0.0,-0.1220703125,-0.06103515625
1781600085.9389312,0.2501940734863281,0.00239420166015625,9.920374578857421,-0.30517578125,-0.06103515625,-0.06103515625
1781600085.9429312,0.22026655273437498,0.016759411621093748,9.938331091308592,0.1220703125,-0.06103515625,0.0
1781600085.9469311,0.2154781494140625,0.031124621582031248,9.93354268798828,0.06103515625,-0.1220703125,-0.06103515625
1781600085.950931,0.23343466186523437,-0.00239420166015625,9.916783276367187,0.1220703125,-0.06103515625,-0.06103515625
1781600085.954931,0.229843359375,0.003591302490234375,9.90840357055664,-0.06103515625,0.0,-0.1220703125
1781600085.958931,0.2262520568847656,-0.008379705810546874,9.951499200439452,-0.06103515625,-0.1220703125,0.1220703125
1781600085.962931,0.2609679809570312,0.011971008300781249,9.943119494628906,0.0,-0.1220703125,0.0
1781600085.9669309,0.2346317626953125,0.00718260498046875,9.950302099609374,-0.06103515625,-0.1220703125,-0.18310546875
1781600085.9709308,0.24061726684570311,0.0047884033203125,9.97184991455078,0.0,-0.1220703125,-0.3662109375
1781600085.9749215,0.2442085693359375,-0.009576806640625,9.94671079711914,-0.18310546875,-0.18310546875,0.06103515625
1781600085.9789214,0.2501940734863281,0.020350714111328123,9.928754284667969,-0.1220703125,0.0,-0.1220703125
1781600085.9829214,0.24899697265624998,0.01915361328125,9.917980377197265,0.1220703125,-0.30517578125,0.1220703125
1781600085.9869213,0.22385785522460935,0.0047884033203125,9.900023864746093,0.18310546875,-0.06103515625,-0.244140625
1781600085.9909213,0.2059013427734375,0.02154781494140625,9.934739788818359,-0.06103515625,0.1220703125,-0.06103515625
1781600085.9949212,0.229843359375,-0.00239420166015625,9.94671079711914,0.0,0.0,0.0
1781600085.9989212,0.22026655273437498,0.029927520751953124,9.943119494628906,0.0,0.06103515625,0.1220703125
1781600086.002921,0.1927332336425781,0.015562310791015624,9.955090502929687,0.1220703125,-0.1220703125,0.244140625
1781600086.006921,0.201112939453125,0.016759411621093748,9.938331091308592,0.1220703125,0.1220703125,0.1220703125
1781600086.010921,0.1975216369628906,0.009576806640625,9.937133990478515,0.1220703125,0.06103515625,-0.244140625
1781600086.014921,0.1975216369628906,0.013168109130859374,9.944316595458984,-0.18310546875,0.1220703125,-0.06103515625
1781600086.018921,0.17836802368164062,0.001197100830078125,9.900023864746093,0.1220703125,0.06103515625,0.1220703125
1781600086.0229208,0.1879448303222656,0.01915361328125,9.911994873046874,0.1220703125,0.06103515625,0.1220703125
1781600086.0269208,0.17836802368164062,0.020350714111328123,9.941922393798828,0.244140625,0.06103515625,-0.1220703125
1781600086.0309207,0.18435352783203124,0.005985504150390624,9.97783541870117,0.0,-0.244140625,0.06103515625
1781600086.0349207,0.16280571289062498,0.02154781494140625,9.962273107910155,0.06103515625,-0.1220703125,0.0
1781600086.0389206,0.17238251953125,0.016759411621093748,9.943119494628906,-0.06103515625,-0.244140625,-0.1220703125
1781600086.0429206,0.16759411621093748,0.008379705810546874,9.95987890625,0.18310546875,-0.18310546875,-0.18310546875
1781600086.0469205,0.16639701538085935,0.0,9.949104998779296,-0.06103515625,0.06103515625,0.0
1781600086.0509205,0.17956512451171874,-0.013168109130859374,9.935936889648437,-0.18310546875,-0.244140625,0.0
1781600086.0549204,0.16639701538085935,0.00718260498046875,9.945513696289062,0.1220703125,-0.18310546875,0.0
1781600086.0589204,0.19033903198242186,-0.008379705810546874,9.952696301269532,0.18310546875,-0.30517578125,0.06103515625
1781600086.0629203,0.1879448303222656,0.027533319091796873,9.934739788818359,-0.1220703125,-0.18310546875,0.06103515625
1781600086.0669203,0.20709844360351562,0.0047884033203125,9.94671079711914,0.0,-0.30517578125,0.06103515625
1781600086.0709202,0.20949264526367187,0.0047884033203125,9.95987890625,0.1220703125,-0.42724609375,0.06103515625
1781600086.0749202,0.21068974609375,0.00239420166015625,9.943119494628906,-0.06103515625,-0.48828125,0.1220703125
1781600086.0789201,0.23822306518554687,0.013168109130859374,9.926360083007811,0.06103515625,-0.1220703125,0.06103515625
1781600086.08292,0.21787235107421873,0.005985504150390624,9.91558617553711,0.1220703125,0.0,0.06103515625
1781600086.08692,0.23822306518554687,0.009576806640625,9.928754284667969,0.0,-0.1220703125,0.1220703125
1781600086.09092,0.23582886352539062,0.009576806640625,9.9215716796875,0.1220703125,0.06103515625,0.06103515625
1781600086.09492,0.2537853759765625,-0.013168109130859374,9.928754284667969,0.244140625,-0.06103515625,0.06103515625
1781600086.0989199,0.24181436767578124,0.023942016601562498,9.93952819213867,0.06103515625,0.244140625,0.30517578125
1781600086.1029198,0.239420166015625,0.0,9.95987890625,0.0,-0.1220703125,-0.18310546875
1781600086.1069198,0.24899697265624998,0.017956512451171875,9.92755718383789,0.244140625,0.06103515625,0.06103515625
1781600086.1109197,0.2262520568847656,0.0143652099609375,9.926360083007811,0.244140625,0.1220703125,0.0
1781600086.1149197,0.21906945190429686,-0.025139117431640625,9.931148486328125,-0.1220703125,0.18310546875,0.06103515625
1781600086.1189196,0.23223756103515625,0.001197100830078125,9.929951385498047,0.244140625,0.244140625,0.3662109375
1781600086.1229196,0.2166752502441406,-0.00239420166015625,9.932345587158203,0.3662109375,0.1220703125,-0.06103515625
1781600086.1269195,0.22744915771484372,0.017956512451171875,9.91438907470703,0.30517578125,0.30517578125,0.0
1781600086.1309195,0.20231004028320312,-0.011971008300781249,9.955090502929687,0.1220703125,0.0,-0.06103515625
1781600086.1349194,0.2166752502441406,0.028730419921875,9.947907897949218,0.06103515625,0.06103515625,0.1220703125
1781600086.1389194,0.20709844360351562,0.016759411621093748,9.969455712890625,0.1220703125,0.0,0.06103515625
1781600086.1429193,0.20350714111328125,-0.009576806640625,9.945513696289062,0.06103515625,0.0,0.18310546875
1781600086.1469193,0.1975216369628906,0.011971008300781249,9.94671079711914,0.244140625,0.1220703125,-0.06103515625
1781600086.1509192,0.21428104858398436,-0.013168109130859374,9.951499200439452,0.30517578125,0.06103515625,0.0
1781600086.1549191,0.18435352783203124,-0.009576806640625,9.944316595458984,0.1220703125,0.0,0.0
1781600086.158919,0.1879448303222656,-0.005985504150390624,9.937133990478515,0.18310546875,-0.1220703125,0.18310546875
1781600086.162919,0.1867477294921875,-0.016759411621093748,9.926360083007811,0.3662109375,0.0,-0.1220703125
1781600086.166919,0.15682020874023436,0.017956512451171875,9.952696301269532,-0.1220703125,-0.1220703125,-0.1220703125
1781600086.170919,0.16879121704101563,0.017956512451171875,9.938331091308592,0.244140625,0.1220703125,0.244140625
1781600086.174919,0.19512743530273435,0.005985504150390624,9.943119494628906,0.06103515625,-0.06103515625,-0.18310546875
1781600086.1789188,0.181959326171875,-0.005985504150390624,9.956287603759765,0.1220703125,-0.18310546875,0.06103515625
1781600086.1829188,0.19033903198242186,-0.003591302490234375,9.941922393798828,-0.06103515625,0.244140625,-0.06103515625
1781600086.1869187,0.17238251953125,0.029927520751953124,9.929951385498047,0.244140625,0.0,-0.06103515625
1781600086.1909187,0.20231004028320312,-0.0047884033203125,9.945513696289062,0.06103515625,0.18310546875,-0.06103515625
1781600086.1949186,0.1879448303222656,0.020350714111328123,9.980229620361328,0.1220703125,0.1220703125,0.18310546875
1781600086.1989186,0.1975216369628906,0.025139117431640625,9.964667309570311,0.06103515625,-0.1220703125,0.18310546875
1781600086.2029185,0.1927332336425781,0.00239420166015625,9.943119494628906,0.244140625,0.06103515625,0.1220703125
