timestamp,acc_x,acc_y,acc_z,gyro_x,gyro_y,gyro_z
1781667573.3116827,0.1879448303222656,0.0,9.961076007080077,0.48828125,-0.244140625,0.1220703125
1781667573.314623,0.21188684692382811,0.033518823242187495,9.949104998779296,0.18310546875,-0.42724609375,0.0
1781667573.318623,0.2214636535644531,0.0383072265625,9.958681805419921,-0.30517578125,-0.8544921875,-0.244140625
1781667573.322604,0.24301146850585936,0.0143652099609375,10.031704956054687,-0.42724609375,-1.3427734375,-0.48828125
1781667573.326604,0.239420166015625,0.031124621582031248,9.987412225341796,-0.6103515625,-1.220703125,-0.79345703125
1781667573.3306038,0.27174188842773433,-0.037110125732421874,9.947907897949218,-0.3662109375,-1.46484375,-0.67138671875
1781667573.3346038,0.24660277099609373,-0.031124621582031248,9.93354268798828,-0.244140625,-1.28173828125,-0.732421875
1781667573.3385973,0.23223756103515625,-0.037110125732421874,9.896432562255859,-0.1220703125,-1.0986328125,-0.54931640625
1781667573.3425972,0.2442085693359375,0.0,9.83897172241211,0.0,-1.0986328125,-0.42724609375
1781667573.3465972,0.2753331909179687,0.010773907470703125,9.85692823486328,0.42724609375,-0.732421875,0.06103515625
1781667573.3505971,0.3076549133300781,0.020350714111328123,9.907206469726562,0.48828125,-0.3662109375,0.244140625
1781667573.354597,0.29927520751953124,0.07781155395507812,9.910797772216796,0.48828125,0.06103515625,0.42724609375
1781667573.358597,0.28490999755859375,0.05386953735351562,9.909600671386718,0.3662109375,0.18310546875,0.54931640625
1781667573.362597,0.2454056701660156,0.062249243164062495,9.941922393798828,0.06103515625,0.54931640625,0.54931640625
1781667573.366597,0.2549824768066406,0.027533319091796873,9.934739788818359,-0.06103515625,0.6103515625,0.6103515625
1781667573.370597,0.22505495605468748,-0.013168109130859374,9.878476049804688,0.244140625,0.54931640625,0.18310546875
1781667573.3745968,0.1867477294921875,0.00718260498046875,9.929951385498047,0.06103515625,0.67138671875,-0.06103515625
1781667573.3785968,0.18435352783203124,-0.011971008300781249,9.961076007080077,-0.1220703125,0.79345703125,-0.06103515625
1781667573.3825967,0.14963760375976562,0.003591302490234375,9.97184991455078,-0.06103515625,0.3662109375,-0.244140625
1781667573.3865967,0.13168109130859373,-0.008379705810546874,9.982623822021484,-0.1220703125,-0.42724609375,-0.1220703125
1781667573.3905966,0.11851298217773437,-0.01915361328125,10.020931048583984,0.0,-0.8544921875,-0.18310546875
1781667573.3945966,0.1304839904785156,0.008379705810546874,10.03050785522461,-0.1220703125,-1.28173828125,-0.244140625
1781667573.3985965,0.14724340209960937,-0.010773907470703125,9.97184991455078,-0.06103515625,-1.46484375,-0.1220703125
1781667573.4025965,0.1388636962890625,-0.033518823242187495,9.949104998779296,0.0,-1.708984375,0.18310546875
1781667573.4065964,0.17597382202148437,-0.017956512451171875,9.91558617553711,-0.06103515625,-1.5869140625,0.0
1781667573.4105964,0.2262520568847656,-0.02154781494140625,9.896432562255859,0.06103515625,-1.52587890625,-0.06103515625
1781667573.4145963,0.28371289672851563,0.005985504150390624,9.89523546142578,0.06103515625,-1.28173828125,-0.1220703125
1781667573.4185963,0.32561142578124996,-0.015562310791015624,9.900023864746093,-0.244140625,-0.8544921875,0.18310546875
1781667573.4225962,0.3387795349121094,-0.003591302490234375,9.91438907470703,-0.06103515625,-0.48828125,0.244140625
1781667573.4265962,0.3327940307617187,-0.03950432739257812,9.917980377197265,-0.244140625,-0.48828125,0.18310546875
1781667573.430596,0.30885201416015623,-0.06584054565429687,9.923965881347655,-0.244140625,-0.1220703125,-0.18310546875
1781667573.434596,0.3220201232910156,-0.06464344482421874,9.890447058105469,0.0,0.48828125,-0.244140625
1781667573.438596,0.28012159423828126,-0.076614453125,9.858125335693359,0.244140625,0.3662109375,0.0
1781667573.442596,0.229843359375,-0.076614453125,9.892841259765625,0.30517578125,0.48828125,-0.1220703125
1781667573.446596,0.21308394775390624,-0.010773907470703125,9.964667309570311,0.42724609375,0.732421875,0.30517578125
1781667573.4505959,0.22385785522460935,0.04548983154296875,9.955090502929687,0.48828125,0.42724609375,0.244140625
1781667573.4545958,0.26216508178710934,0.08259995727539061,9.97783541870117,0.3662109375,-0.1220703125,0.54931640625
1781667573.4585958,0.22266075439453123,0.08738836059570312,9.996989031982421,0.30517578125,-0.18310546875,0.79345703125
1781667573.4625957,0.18555062866210936,0.06943184814453125,9.987412225341796,-0.1220703125,-0.42724609375,0.48828125
1781667573.4665956,0.16160861206054686,0.0526724365234375,9.947907897949218,-0.1220703125,-1.03759765625,0.42724609375
1781667573.4705956,0.16041151123046873,0.020350714111328123,9.93354268798828,-0.42724609375,-0.67138671875,0.06103515625
1781667573.4745955,0.18435352783203124,0.03950432739257812,9.93354268798828,-0.42724609375,-1.15966796875,-0.3662109375
1781667573.4785955,0.22505495605468748,0.027533319091796873,9.919177478027343,-0.42724609375,-1.64794921875,-0.54931640625
1781667573.4825954,0.27293898925781246,-0.05985504150390625,9.95987890625,-0.48828125,-1.77001953125,-0.42724609375
1781667573.4865954,0.33039982910156246,-0.11731588134765625,10.007762939453125,-0.67138671875,-2.13623046875,-0.48828125
1781667573.4905953,0.3758896606445312,-0.13766659545898435,9.973047015380859,-0.48828125,-2.44140625,-0.54931640625
1781667573.4945953,0.4572925170898437,-0.12569558715820311,9.911994873046874,-0.1220703125,-2.197265625,-0.30517578125
1781667573.4985952,0.5446808776855468,-0.15682020874023436,9.843760125732421,0.67138671875,-2.01416015625,-0.244140625
1781667573.5025952,0.5219359619140624,-0.21906945190429686,9.860519537353515,0.79345703125,-1.0986328125,-0.30517578125
1781667573.5065951,0.4584896179199218,-0.1975216369628906,9.828197814941406,1.15966796875,0.1220703125,-0.06103515625
1781667573.510595,0.42018239135742186,-0.105344873046875,9.771934075927733,1.0986328125,1.40380859375,-0.244140625
1781667573.514595,0.36750995483398435,0.009576806640625,9.721655841064452,1.52587890625,3.173828125,-0.1220703125
1781667573.518595,0.32920272827148434,0.09816226806640624,9.813832604980469,1.46484375,3.84521484375,0.18310546875
1781667573.522595,0.2813186950683594,0.13287819213867186,9.868899243164062,1.0986328125,4.2724609375,0.8544921875
1781667573.5265949,0.20949264526367187,0.14125789794921875,9.91438907470703,0.3662109375,4.21142578125,1.708984375
1781667573.5305948,0.12808978881835936,0.14604630126953125,10.002974536132811,-0.1220703125,3.5400390625,2.0751953125
1781667573.5345948,0.05985504150390625,0.09217676391601562,10.060435375976562,0.06103515625,2.62451171875,2.197265625
1781667573.5385947,-0.025139117431640625,-0.01915361328125,10.075997686767577,0.244140625,1.03759765625,1.5869140625
1781667573.5425947,-0.1149216796875,-0.0718260498046875,10.101136804199218,0.18310546875,-0.06103515625,0.91552734375
1781667573.5465946,-0.11372457885742186,-0.09696516723632811,10.17056865234375,0.42724609375,-1.220703125,0.18310546875
1781667573.5505946,-0.022744915771484374,-0.020350714111328123,10.134655627441406,0.30517578125,-2.3193359375,-0.48828125
1781667573.5545945,0.062249243164062495,0.058657940673828124,10.089165795898436,0.244140625,-3.662109375,-1.03759765625
1781667573.5585945,0.105344873046875,0.12569558715820311,10.038887561035155,-0.3662109375,-4.150390625,-1.40380859375
1781667573.5625944,0.08259995727539061,0.15322890625,9.97783541870117,-0.67138671875,-4.638671875,-1.77001953125
1781667573.5665944,0.12090718383789062,0.17956512451171874,9.906009368896484,-1.28173828125,-4.39453125,-2.0751953125
1781667573.5705943,0.20231004028320312,0.21428104858398436,9.841365924072266,-1.64794921875,-3.662109375,-1.77001953125
1781667573.5745943,0.2741360900878906,0.16519991455078123,9.81862100830078,-1.52587890625,-2.99072265625,-1.64794921875
1781667573.5785942,0.3387795349121094,0.051475335693359374,9.827000714111328,-1.64794921875,-2.38037109375,-1.03759765625
1781667573.5825942,0.29927520751953124,-0.029927520751953124,9.865307940673828,-1.15966796875,-1.708984375,-0.79345703125
1781667573.586594,0.3399766357421875,-0.09935936889648436,9.894038360595703,-0.8544921875,-0.42724609375,-0.06103515625
1781667573.590594,0.33399113159179683,-0.09696516723632811,9.842563024902343,-0.18310546875,-0.3662109375,0.6103515625
1781667573.594594,0.29927520751953124,-0.11851298217773437,9.849745629882811,0.6103515625,0.30517578125,1.15966796875
1781667573.598594,0.29089550170898437,-0.10295067138671875,9.865307940673828,0.9765625,0.9765625,1.46484375
1781667573.602591,0.30406361083984373,-0.11252747802734374,9.89523546142578,0.9765625,1.3427734375,1.52587890625
1781667573.606591,0.33399113159179683,-0.06703764648437499,9.925162982177733,0.42724609375,1.0986328125,1.89208984375
1781667573.610591,0.4070142822265625,-0.04668693237304687,9.982623822021484,0.18310546875,1.0986328125,1.77001953125
1781667573.614591,0.42377369384765623,-0.086191259765625,9.999383233642577,-0.1220703125,0.3662109375,1.708984375
1781667573.6185908,0.44412440795898434,-0.16759411621093748,9.97903251953125,0.18310546875,0.0,1.28173828125
1781667573.6225908,0.4261678955078125,-0.24660277099609373,9.955090502929687,0.244140625,-0.1220703125,0.48828125
1781667573.6265907,0.41539398803710936,-0.29448680419921874,9.938331091308592,0.48828125,-0.30517578125,-0.06103515625
1781667573.6305907,0.35194764404296874,-0.23822306518554687,9.897629663085937,0.79345703125,-0.18310546875,-0.48828125
1781667573.6345906,0.2705447875976562,-0.1484405029296875,9.847351428222655,1.220703125,0.67138671875,-0.91552734375
1781667573.6385906,0.25258827514648435,0.031124621582031248,9.783905084228515,0.8544921875,0.79345703125,-0.9765625
1781667573.6425905,0.22026655273437498,0.11252747802734374,9.87727894897461,1.3427734375,0.732421875,-0.91552734375
1781667573.6465905,0.27892449340820313,0.2346317626953125,9.94072529296875,0.67138671875,1.46484375,-0.18310546875
1781667573.6505904,0.2753331909179687,0.2561795776367187,10.056844073486328,-0.30517578125,1.220703125,0.9765625
1781667573.6545904,0.23343466186523437,0.2346317626953125,9.981426721191406,-0.91552734375,0.42724609375,1.89208984375
1781667573.6585639,0.16759411621093748,0.239420166015625,9.975441217041014,-0.3662109375,0.30517578125,2.13623046875
1781667573.6625552,0.044292730712890624,0.04908113403320312,10.025719451904296,-0.18310546875,-0.30517578125,1.77001953125
1781667573.6665552,-0.04548983154296875,-0.07302315063476562,9.880870251464843,0.48828125,-0.732421875,0.8544921875
1781667573.670555,0.04548983154296875,-0.10893617553710937,9.849745629882811,0.3662109375,-0.91552734375,0.30517578125
1781667573.674555,0.2549824768066406,-0.07302315063476562,10.172962854003906,0.6103515625,-1.220703125,-0.30517578125
1781667573.678555,0.39264907226562495,0.013168109130859374,10.098742602539062,0.244140625,-2.86865234375,-0.3662109375
1781667573.682555,0.3363853332519531,0.027533319091796873,9.951499200439452,-0.244140625,-3.23486328125,-0.6103515625
1781667573.686555,0.33758243408203126,0.02154781494140625,10.064026678466796,-0.67138671875,-3.47900390625,-1.03759765625
1781667573.6905549,0.3184288208007812,0.00239420166015625,9.994594830322265,-1.03759765625,-3.35693359375,-1.3427734375
1781667573.6945548,0.18076222534179687,-0.040701428222656245,9.676166009521484,-0.67138671875,-2.0751953125,-1.708984375
1781667573.6985548,0.15682020874023436,-0.01915361328125,9.642647186279296,-0.48828125,-0.9765625,-1.89208984375
1781667573.7025547,0.4034229797363281,0.3555389465332031,9.941922393798828,1.40380859375,-0.54931640625,-0.67138671875
1781667573.7065547,0.7481880187988281,0.08499415893554688,9.9981861328125,4.39453125,-6.65283203125,0.732421875
1781667573.7105546,-0.3495534423828125,-1.0019733947753906,10.013748443603514,-1.220703125,-1.52587890625,0.3662109375
1781667573.7145545,-0.19632453613281248,-0.4165910888671875,10.268730920410155,-4.69970703125,2.3193359375,1.03759765625
1781667573.7185545,0.4991910461425781,0.6021417175292968,9.777919580078125,-0.8544921875,0.06103515625,1.708984375
1781667573.7225544,0.29089550170898437,0.948103857421875,8.896853369140624,5.67626953125,1.46484375,2.5634765625
1781667573.7265544,0.06943184814453125,-0.015562310791015624,9.431957440185545,5.37109375,2.44140625,2.3193359375
1781667573.7305543,0.0,-0.8092401611328125,10.720037933349609,-0.06103515625,2.86865234375,1.64794921875
1781667573.7345543,0.06105214233398437,-0.5003881469726562,10.375272894287109,-2.685546875,3.662109375,1.953125
1781667573.7385542,0.4955997436523437,0.22385785522460935,9.728838446044922,-1.8310546875,1.708984375,1.953125
1781667573.7425542,0.55545478515625,0.47644613037109373,9.83178911743164,1.5869140625,-0.91552734375,1.8310546875
1781667573.7465541,0.14724340209960937,-0.04548983154296875,9.950302099609374,3.84521484375,-2.25830078125,0.48828125
1781667573.750554,-0.29448680419921874,-0.6069301208496093,10.152612139892577,0.244140625,-1.220703125,-1.220703125
1781667573.754554,-0.044292730712890624,-0.29568390502929687,10.199299072265624,-2.44140625,0.1220703125,-1.708984375
1781667573.758554,0.3280056274414062,0.32920272827148434,10.012551342773437,-1.15966796875,-2.197265625,-1.3427734375
1781667573.762554,0.38666356811523434,0.48123453369140623,9.767145672607422,1.220703125,-4.08935546875,-0.79345703125
1781667573.7665539,0.18555062866210936,0.19871873779296872,9.759963067626952,0.18310546875,-3.60107421875,-0.54931640625
1781667573.7705538,0.005985504150390624,-0.105344873046875,10.006565838623047,-1.15966796875,-1.46484375,-0.48828125
1781667573.7745538,0.3076549133300781,-0.08499415893554688,10.041281762695311,-1.77001953125,-2.685546875,-0.244140625
1781667573.7785537,0.41419688720703124,0.24779987182617186,9.732429748535155,-0.9765625,-1.8310546875,0.30517578125
1781667573.7825537,0.3950432739257812,0.30885201416015623,9.749189160156249,-0.3662109375,-0.18310546875,0.732421875
1781667573.7865536,0.5638344909667968,-0.04548983154296875,9.891644158935547,0.54931640625,-1.8310546875,0.67138671875
1781667573.7905536,0.3447650390625,-0.2346317626953125,9.981426721191406,-0.06103515625,-1.64794921875,0.67138671875
1781667573.7945535,0.1867477294921875,-0.1640028137207031,9.904812268066406,-1.52587890625,2.44140625,0.54931640625
1781667573.7985535,0.41898529052734373,0.11133037719726561,9.819818109130859,-0.6103515625,2.3193359375,0.732421875
1781667573.8025534,0.5410895751953124,0.2861070983886719,9.8449572265625,1.15966796875,1.0986328125,0.91552734375
1781667573.8065534,0.4477157104492187,0.086191259765625,9.880870251464843,1.0986328125,0.6103515625,1.220703125
1781667573.8105533,0.3315969299316406,-0.2645592834472656,10.05564697265625,-1.220703125,0.91552734375,1.220703125
1781667573.8145533,0.32920272827148434,-0.3902548706054687,10.087968695068358,-1.5869140625,-0.30517578125,0.8544921875
1781667573.8185532,0.38307226562499996,-0.22505495605468748,9.98501802368164,-0.54931640625,-1.77001953125,0.244140625
1781667573.8225532,0.26815058593749996,-0.04908113403320312,9.93354268798828,0.244140625,-0.3662109375,-0.3662109375
1781667573.826553,0.2214636535644531,-0.16879121704101563,9.846154327392577,1.46484375,0.3662109375,-1.0986328125
1781667573.830553,0.23582886352539062,-0.3687070556640625,9.95987890625,1.64794921875,-1.0986328125,-1.5869140625
1781667573.834553,0.2346317626953125,-0.24660277099609373,10.060435375976562,0.48828125,-0.30517578125,-1.64794921875
1781667573.838553,0.3363853332519531,0.03591302490234375,9.861716638183593,-0.18310546875,0.8544921875,-1.0986328125
1781667573.842553,0.42975919799804685,0.19153613281249998,9.750386260986328,0.8544921875,0.0,-0.42724609375
1781667573.8465528,0.36152445068359373,0.14963760375976562,9.817423907470703,1.64794921875,-0.67138671875,0.06103515625
1781667573.8505528,0.086191259765625,0.0526724365234375,9.97783541870117,0.54931640625,2.01416015625,0.8544921875
1781667573.8545527,0.005985504150390624,-0.09935936889648436,9.93354268798828,-0.48828125,2.86865234375,1.0986328125
1781667573.8585527,0.06584054565429687,0.00718260498046875,9.82580361328125,0.54931640625,2.197265625,0.732421875
1781667573.8625526,-0.027533319091796873,0.258573779296875,9.85692823486328,1.5869140625,3.2958984375,1.220703125
1781667573.8665526,0.10893617553710937,0.1580173095703125,9.90840357055664,1.40380859375,3.11279296875,1.46484375
1781667573.8705525,0.1304839904785156,-0.040701428222656245,10.101136804199218,1.220703125,1.220703125,1.3427734375
1781667573.8745525,0.1388636962890625,-0.05386953735351562,10.23401499633789,0.0,-0.244140625,1.5869140625
1781667573.8785524,0.17597382202148437,0.08738836059570312,10.133458526611328,-0.732421875,-0.9765625,1.46484375
1781667573.8825524,0.143652099609375,0.11252747802734374,9.95389340209961,0.0,-1.64794921875,0.732421875
1781667573.8865523,0.1197100830078125,-0.005985504150390624,9.911994873046874,1.0986328125,-3.173828125,-0.244140625
1781667573.8905523,0.0143652099609375,-0.08738836059570312,10.024522351074218,-0.1220703125,-2.8076171875,-1.28173828125
1781667573.8945522,0.07422025146484375,-0.06823474731445311,9.98501802368164,-1.03759765625,-1.52587890625,-2.13623046875
1781667573.8985522,0.3028665100097656,0.0718260498046875,9.922768780517577,-0.8544921875,-2.8076171875,-2.25830078125
1781667573.9025521,0.39983167724609375,0.27174188842773433,9.951499200439452,-0.48828125,-2.99072265625,-2.01416015625
1781667573.906552,0.3758896606445312,0.2537853759765625,9.886855755615233,-1.03759765625,-2.62451171875,-1.3427734375
1781667573.910552,0.296881005859375,0.04548983154296875,9.885658654785155,-1.3427734375,-2.25830078125,-0.3662109375
1781667573.914552,0.3184288208007812,-0.13168109130859373,9.923965881347655,-1.40380859375,-2.62451171875,0.06103515625
1781667573.918552,0.2825157958984375,-0.04548983154296875,9.878476049804688,-0.8544921875,-1.5869140625,0.6103515625
1781667573.9225519,0.26695348510742184,0.0,9.758765966796874,-0.30517578125,-0.18310546875,0.91552734375
1781667573.9265518,0.36750995483398435,-0.09217676391601562,9.782707983398437,0.91552734375,-0.6103515625,1.03759765625
1781667573.9305518,0.31962592163085934,-0.13168109130859373,10.012551342773437,1.03759765625,0.0,1.15966796875
1781667573.9345517,0.32920272827148434,-0.14724340209960937,10.016142645263672,0.0,0.91552734375,0.9765625
1781667573.9385517,0.4285620971679687,-0.06584054565429687,9.89523546142578,-0.18310546875,0.42724609375,1.28173828125
1781667573.9425516,0.4752490295410156,0.011971008300781249,9.904812268066406,0.42724609375,-0.8544921875,1.28173828125
1781667573.9465516,0.4560954162597656,-0.023942016601562498,9.932345587158203,0.0,-1.03759765625,0.67138671875
1781667573.9505515,0.36631285400390623,-0.18555062866210936,9.911994873046874,-0.48828125,-0.48828125,0.3662109375
1781667573.9545515,0.33518823242187495,-0.2932897033691406,9.90840357055664,-0.6103515625,-0.9765625,-0.54931640625
1781667573.9585514,0.33758243408203126,-0.18315642700195311,9.980229620361328,-0.30517578125,-0.9765625,-1.03759765625
1781667573.9625514,0.3232172241210937,-0.07302315063476562,9.923965881347655,0.244140625,0.06103515625,-1.77001953125
1781667573.9665513,0.35314474487304687,-0.0718260498046875,9.834183319091796,0.54931640625,-0.30517578125,-1.5869140625
1781667573.9705513,0.35673604736328124,-0.08499415893554688,9.969455712890625,1.40380859375,-0.1220703125,-1.28173828125
1781667573.9745512,0.3495534423828125,-0.040701428222656245,10.006565838623047,0.18310546875,0.244140625,-0.79345703125
1781667573.9785511,0.3172317199707031,0.0430956298828125,9.87009634399414,0.30517578125,0.54931640625,0.1220703125
1781667573.982551,0.3699041564941406,0.12569558715820311,9.775525378417969,0.9765625,0.9765625,0.67138671875
1781667573.986551,0.3268085266113281,0.143652099609375,9.847351428222655,1.3427734375,1.0986328125,1.28173828125
1781667573.990551,0.15083470458984374,0.06584054565429687,9.874884747314452,1.28173828125,2.8076171875,1.52587890625
1781667573.994551,0.076614453125,-0.04548983154296875,9.8449572265625,1.15966796875,3.47900390625,1.28173828125
1781667573.998551,0.06703764648437499,0.07302315063476562,9.928754284667969,1.40380859375,3.5400390625,0.91552734375
1781667574.0025508,0.05746083984375,0.21068974609375,9.958681805419921,1.0986328125,3.90625,0.9765625
1781667574.0065508,0.105344873046875,0.181959326171875,9.963470208740233,0.54931640625,3.11279296875,0.9765625
1781667574.0105507,0.08259995727539061,0.11611878051757812,10.127473022460936,0.244140625,1.28173828125,0.9765625
1781667574.0145507,0.0383072265625,0.03591302490234375,10.186130963134765,-0.54931640625,-0.6103515625,0.79345703125
1781667574.0185506,-0.02633621826171875,-0.03232172241210937,10.117896215820313,-1.03759765625,-1.28173828125,0.732421875
1781667574.0225506,-0.06105214233398437,-0.03950432739257812,10.031704956054687,-0.54931640625,-2.25830078125,0.18310546875
1781667574.0265505,0.003591302490234375,-0.08738836059570312,10.019733947753906,0.0,-3.662109375,-0.67138671875
1781667574.0305505,-0.008379705810546874,-0.11851298217773437,10.053252770996092,0.0,-3.90625,-1.40380859375
1781667574.0345504,0.11611878051757812,-0.07302315063476562,10.032902056884765,-0.30517578125,-3.5400390625,-1.77001953125
1781667574.0385504,0.26815058593749996,0.0143652099609375,10.034099157714843,-0.6103515625,-4.21142578125,-2.01416015625
1781667574.0425503,0.3687070556640625,0.14245499877929688,9.93354268798828,-0.54931640625,-4.0283203125,-1.52587890625
1781667574.0465503,0.3651157531738281,0.13766659545898435,9.789890588378906,-0.79345703125,-3.47900390625,-0.91552734375
1781667574.0505502,0.3495534423828125,0.09816226806640624,9.804255798339844,-0.9765625,-2.5634765625,-0.42724609375
1781667574.0545502,0.36152445068359373,-0.008379705810546874,9.840168823242188,-1.03759765625,-2.13623046875,0.244140625
1781667574.0585501,0.3280056274414062,-0.017956512451171875,9.794678991699218,-0.9765625,-0.54931640625,0.54931640625
1781667574.06255,0.36272155151367186,-0.033518823242187495,9.795876092529296,-0.48828125,0.42724609375,0.67138671875
1781667574.06655,0.41419688720703124,-0.0430956298828125,9.85692823486328,0.0,0.30517578125,1.0986328125
1781667574.07055,0.3842693664550781,-0.08499415893554688,9.968258612060547,0.54931640625,0.48828125,1.15966796875
1781667574.07455,0.37229835815429685,-0.17118541870117188,9.956287603759765,0.244140625,0.732421875,1.40380859375
1781667574.0785499,0.4129997863769531,-0.12808978881835936,9.961076007080077,0.18310546875,0.1220703125,1.3427734375
1781667574.0825498,0.4752490295410156,-0.10295067138671875,9.974244116210937,0.244140625,-0.48828125,0.8544921875
1781667574.0865498,0.45010991210937495,-0.11013327636718749,9.93354268798828,0.42724609375,-0.8544921875,0.8544921875
1781667574.0905497,0.36750995483398435,-0.11252747802734374,9.91558617553711,0.3662109375,-0.79345703125,-0.06103515625
1781667574.0945497,0.39983167724609375,-0.16280571289062498,9.906009368896484,0.244140625,-0.91552734375,-0.9765625
1781667574.0985496,0.3711012573242187,-0.08499415893554688,9.935936889648437,0.0,-0.67138671875,-1.220703125
1781667574.1025496,0.36750995483398435,-0.017956512451171875,9.898826763916015,0.0,0.244140625,-1.52587890625
1781667574.1065495,0.41419688720703124,0.0143652099609375,9.8449572265625,0.3662109375,0.6103515625,-1.52587890625
1781667574.1105494,0.37708676147460934,0.020350714111328123,9.894038360595703,0.54931640625,0.6103515625,-1.220703125
1781667574.1145494,0.35314474487304687,0.00718260498046875,9.892841259765625,0.3662109375,1.15966796875,-0.6103515625
1781667574.1185493,0.258573779296875,0.0143652099609375,9.900023864746093,0.244140625,1.77001953125,0.18310546875
1781667574.1225493,0.2741360900878906,-0.025139117431640625,9.865307940673828,0.48828125,1.89208984375,0.67138671875
1781667574.1265492,0.19033903198242186,0.017956512451171875,9.920374578857421,1.40380859375,1.89208984375,1.220703125
1781667574.1305492,0.06943184814453125,0.025139117431640625,9.920374578857421,1.5869140625,3.0517578125,1.40380859375
1781667574.1345265,-0.029927520751953124,0.028730419921875,9.903615167236328,1.5869140625,2.685546875,1.220703125
1781667574.1385264,-0.034715924072265626,0.06464344482421874,9.96586441040039,1.708984375,2.74658203125,1.28173828125
1781667574.1425264,0.040701428222656245,0.16879121704101563,10.043675964355469,0.91552734375,2.197265625,1.40380859375
1781667574.1465263,0.1005564697265625,0.14604630126953125,10.065223779296874,0.1220703125,1.03759765625,1.40380859375
1781667574.1505263,0.12449848632812499,0.09576806640624999,10.110713610839843,-0.244140625,-0.48828125,1.220703125
1781667574.1545262,0.07781155395507812,-0.022744915771484374,10.10712230834961,-0.8544921875,-1.8310546875,0.67138671875
1781667574.1585262,-0.005985504150390624,-0.1005564697265625,10.070012182617187,-1.0986328125,-2.5634765625,-0.30517578125
1781667574.1625261,0.001197100830078125,-0.14724340209960937,9.97783541870117,-0.8544921875,-3.11279296875,-1.28173828125
1781667574.166526,0.07541735229492187,-0.1352723937988281,9.973047015380859,-0.42724609375,-3.662109375,-2.0751953125
1781667574.170526,0.13766659545898435,-0.044292730712890624,9.982623822021484,0.06103515625,-3.23486328125,-2.38037109375
1781667574.174526,0.22026655273437498,0.00718260498046875,9.969455712890625,-0.18310546875,-3.2958984375,-2.38037109375
1781667574.178526,0.31962592163085934,0.0909796630859375,9.957484704589843,-0.42724609375,-3.60107421875,-1.52587890625
1781667574.1825259,0.36750995483398435,0.18076222534179687,9.89523546142578,-0.6103515625,-3.173828125,-0.67138671875
1781667574.1865258,0.3687070556640625,0.16879121704101563,9.828197814941406,-0.67138671875,-2.50244140625,-0.06103515625
1781667574.1905258,0.3459621398925781,0.11252747802734374,9.775525378417969,-0.30517578125,-1.5869140625,0.67138671875
1781667574.1945257,0.3327940307617187,0.02633621826171875,9.794678991699218,-0.244140625,-0.79345703125,1.03759765625
1781667574.1985257,0.31483751831054685,0.029927520751953124,9.829394915771484,-0.42724609375,0.42724609375,1.15966796875
1781667574.2025256,0.3327940307617187,-0.031124621582031248,9.805452899169921,0.18310546875,1.52587890625,1.0986328125
1781667574.2065256,0.35673604736328124,-0.06344634399414062,9.87009634399414,0.48828125,1.3427734375,1.3427734375
1781667574.2105255,0.37708676147460934,-0.0430956298828125,9.961076007080077,0.48828125,1.5869140625,1.15966796875
1781667574.2145255,0.3950432739257812,-0.12449848632812499,10.006565838623047,0.1220703125,0.8544921875,1.0986328125
1781667574.2185254,0.3962403747558593,-0.1592144104003906,10.026916552734374,0.1220703125,0.244140625,0.6103515625
1781667574.2225254,0.3711012573242187,-0.1640028137207031,10.020931048583984,0.244140625,-0.91552734375,0.30517578125
1781667574.2265253,0.32920272827148434,-0.14604630126953125,9.97184991455078,0.1220703125,-1.0986328125,-0.3662109375
1781667574.2305253,0.296881005859375,-0.18315642700195311,9.92755718383789,0.30517578125,-1.3427734375,-0.9765625
1781667574.2345252,0.3028665100097656,-0.1640028137207031,9.896432562255859,0.54931640625,-1.3427734375,-1.28173828125
1781667574.2385252,0.2765302917480469,-0.10175357055664062,9.917980377197265,0.6103515625,-0.67138671875,-1.64794921875
1781667574.242525,0.30885201416015623,-0.016759411621093748,9.878476049804688,0.30517578125,-0.18310546875,-1.708984375
1781667574.246525,0.3447650390625,0.04189852905273437,9.85094273071289,0.48828125,0.0,-1.3427734375
1781667574.250525,0.34237083740234375,0.11611878051757812,9.910797772216796,0.48828125,0.48828125,-0.30517578125
1781667574.254525,0.2885013000488281,0.105344873046875,9.889249957275391,0.06103515625,0.9765625,0.244140625
1781667574.258525,0.23104046020507812,0.06703764648437499,9.883264453125,0.30517578125,1.5869140625,0.8544921875
1781667574.2625248,0.1927332336425781,0.06703764648437499,9.872490545654296,0.3662109375,1.5869140625,1.28173828125
1781667574.2665248,0.1005564697265625,0.01915361328125,9.903615167236328,0.91552734375,1.8310546875,1.8310546875
1781667574.2705247,0.08499415893554688,0.013168109130859374,9.929951385498047,0.79345703125,2.13623046875,1.52587890625
1781667574.2745247,0.15562310791015624,-0.022744915771484374,9.97903251953125,0.91552734375,1.5869140625,1.708984375
1781667574.2785246,0.19153613281249998,-0.003591302490234375,10.054449871826172,0.6103515625,1.03759765625,1.220703125
1781667574.2825246,0.21428104858398436,0.0526724365234375,10.0748005859375,0.0,0.1220703125,0.732421875
1781667574.2865245,0.21308394775390624,0.0430956298828125,10.02332525024414,-0.30517578125,-0.67138671875,0.48828125
1781667574.2905245,0.17118541870117188,0.05027823486328125,10.019733947753906,-0.6103515625,-1.46484375,-0.06103515625
1781667574.2945244,0.09935936889648436,0.02633621826171875,9.981426721191406,-0.79345703125,-1.5869140625,-0.732421875
1781667574.2985244,0.06105214233398437,0.003591302490234375,9.93354268798828,-0.9765625,-1.46484375,-1.3427734375
1781667574.3025243,0.12569558715820311,0.02154781494140625,9.911994873046874,-0.79345703125,-1.708984375,-1.5869140625
1781667574.3065243,0.1640028137207031,0.07781155395507812,9.93952819213867,-0.67138671875,-1.708984375,-1.64794921875
1781667574.3105242,0.20949264526367187,0.062249243164062495,9.97184991455078,-0.732421875,-1.8310546875,-1.0986328125
1781667574.3145242,0.24899697265624998,0.03591302490234375,9.970652813720703,-0.67138671875,-2.197265625,-0.3662109375
1781667574.3185241,0.22744915771484372,-0.005985504150390624,9.963470208740233,-0.42724609375,-1.953125,0.244140625
1781667574.322524,0.22744915771484372,-0.03232172241210937,9.904812268066406,-0.18310546875,-1.708984375,1.0986328125
1781667574.326524,0.22266075439453123,-0.023942016601562498,9.885658654785155,0.0,-1.3427734375,1.0986328125
1781667574.330524,0.27293898925781246,-0.04908113403320312,9.849745629882811,0.6103515625,-0.67138671875,0.67138671875
1781667574.334524,0.29568390502929687,-0.040701428222656245,9.849745629882811,0.67138671875,-0.30517578125,1.03759765625
1781667574.3385239,0.33518823242187495,-0.022744915771484374,9.880870251464843,0.42724609375,0.1220703125,0.91552734375
1781667574.3425238,0.36631285400390623,0.013168109130859374,9.926360083007811,0.18310546875,0.244140625,0.732421875
1781667574.3465238,0.38666356811523434,-0.0143652099609375,9.945513696289062,-0.18310546875,-0.06103515625,0.48828125
1781667574.3505237,0.38307226562499996,-0.0430956298828125,9.956287603759765,-0.732421875,-0.3662109375,0.3662109375
1781667574.3545237,0.3687070556640625,-0.07900865478515624,9.963470208740233,-0.732421875,-0.48828125,0.18310546875
1781667574.3585236,0.31962592163085934,-0.1388636962890625,9.963470208740233,-0.732421875,-0.732421875,-0.48828125
1781667574.3625236,0.3232172241210937,-0.17357962036132812,9.93952819213867,-0.244140625,-1.03759765625,-0.91552734375
1781667574.3665235,0.31483751831054685,-0.16280571289062498,9.929951385498047,0.06103515625,-0.9765625,-0.8544921875
1781667574.3705235,0.27892449340820313,-0.10773907470703124,9.916783276367187,0.42724609375,-1.15966796875,-0.9765625
1781667574.3745234,0.30526071166992186,-0.06703764648437499,9.935936889648437,0.6103515625,-0.79345703125,-0.732421875
1781667574.3785233,0.3399766357421875,-0.013168109130859374,9.91438907470703,0.67138671875,-0.48828125,-0.30517578125
1781667574.3825233,0.37828386230468747,0.06823474731445311,9.913191973876952,0.48828125,-0.244140625,0.1220703125
1781667574.3865232,0.3699041564941406,0.11013327636718749,9.867702142333984,0.6103515625,-0.06103515625,0.6103515625
1781667574.3905232,0.3327940307617187,0.10175357055664062,9.840168823242188,0.54931640625,0.6103515625,0.79345703125
1781667574.3945231,0.2885013000488281,0.05626373901367187,9.83777462158203,0.3662109375,0.9765625,0.8544921875
1781667574.398523,0.2645592834472656,0.0047884033203125,9.852139831542969,0.42724609375,1.77001953125,1.15966796875
1781667574.402523,0.28730419921875,-0.031124621582031248,9.879673150634765,0.6103515625,1.77001953125,0.732421875
1781667574.406523,0.26695348510742184,-0.0430956298828125,9.920374578857421,0.67138671875,1.953125,0.54931640625
1781667574.410523,0.2549824768066406,-0.04908113403320312,9.988609326171874,0.6103515625,1.52587890625,0.42724609375
1781667574.414523,0.2442085693359375,-0.0430956298828125,10.019733947753906,0.6103515625,1.0986328125,0.1220703125
1781667574.4185228,0.21068974609375,-0.06943184814453125,10.060435375976562,0.54931640625,0.244140625,0.0
1781667574.4225228,0.16519991455078123,-0.0430956298828125,10.014945544433592,0.3662109375,0.0,0.0
1781667574.4265227,0.08140285644531249,0.029927520751953124,9.973047015380859,0.3662109375,-0.18310546875,-0.244140625
1781667574.4305227,0.011971008300781249,0.06464344482421874,9.928754284667969,0.244140625,-0.3662109375,-0.3662109375
1781667574.4345226,0.009576806640625,0.08140285644531249,9.90840357055664,0.3662109375,-0.42724609375,-0.8544921875
1781667574.4385226,0.027533319091796873,0.15203180541992187,9.944316595458984,-0.30517578125,-0.54931640625,-0.42724609375
1781667574.4425225,0.14006079711914063,0.14245499877929688,9.969455712890625,-0.6103515625,-0.79345703125,0.244140625
1781667574.4465225,0.1879448303222656,0.12090718383789062,10.028113653564452,-0.79345703125,-1.5869140625,0.54931640625
1781667574.4505224,0.2154781494140625,0.06823474731445311,10.01733974609375,-1.0986328125,-1.77001953125,0.79345703125
1781667574.4545224,0.19512743530273435,-0.06344634399414062,9.950302099609374,-0.732421875,-2.01416015625,0.79345703125
1781667574.4585223,0.16280571289062498,-0.12569558715820311,9.935936889648437,-0.79345703125,-1.953125,0.3662109375
1781667574.4625223,0.15083470458984374,-0.17836802368164062,9.913191973876952,-0.30517578125,-1.5869140625,-0.1220703125
1781667574.4665222,0.17956512451171874,-0.14724340209960937,9.890447058105469,0.18310546875,-1.0986328125,-0.3662109375
1781667574.4705222,0.29448680419921874,-0.0718260498046875,9.898826763916015,0.244140625,-0.8544921875,-0.54931640625
1781667574.474522,0.34237083740234375,0.02633621826171875,9.926360083007811,0.30517578125,-1.0986328125,-0.54931640625
1781667574.478522,0.36750995483398435,0.06584054565429687,9.956287603759765,-0.30517578125,-1.0986328125,-0.1220703125
1781667574.482522,0.38786066894531246,0.07422025146484375,9.934739788818359,-0.6103515625,-1.28173828125,0.244140625
1781667574.486522,0.3591302490234375,0.02633621826171875,9.903615167236328,-0.54931640625,-1.0986328125,0.67138671875
1781667574.490522,0.3220201232910156,-0.033518823242187495,9.878476049804688,-0.48828125,-0.732421875,0.6103515625
1781667574.4945219,0.2825157958984375,-0.11013327636718749,9.853336932373047,0.0,-0.3662109375,0.244140625
1781667574.4985218,0.26216508178710934,-0.14245499877929688,9.873687646484374,0.30517578125,0.18310546875,0.0
1781667574.5025218,0.2920926025390625,-0.08259995727539061,9.886855755615233,0.54931640625,0.30517578125,-0.1220703125
1781667574.5065217,0.30406361083984373,-0.06105214233398437,9.920374578857421,0.732421875,0.3662109375,-0.06103515625
1781667574.5105217,0.3758896606445312,-0.017956512451171875,9.96586441040039,0.42724609375,0.1220703125,0.06103515625
1781667574.5145216,0.37229835815429685,0.0143652099609375,9.975441217041014,0.30517578125,-0.1220703125,0.18310546875
1781667574.5185215,0.39983167724609375,0.040701428222656245,9.969455712890625,0.1220703125,-0.42724609375,0.67138671875
1781667574.5225215,0.3842693664550781,-0.027533319091796873,9.911994873046874,0.0,-0.54931640625,0.48828125
1781667574.5265214,0.30406361083984373,-0.06943184814453125,9.892841259765625,0.244140625,-0.48828125,0.48828125
1781667574.5305214,0.27892449340820313,-0.08499415893554688,9.866505041503906,0.244140625,0.0,0.06103515625
1781667574.5345213,0.24061726684570311,-0.08259995727539061,9.885658654785155,0.30517578125,0.42724609375,-0.18310546875
1781667574.5385213,0.26695348510742184,-0.062249243164062495,9.909600671386718,0.48828125,0.8544921875,-0.30517578125
1781667574.5425212,0.28490999755859375,-0.0047884033203125,9.949104998779296,0.42724609375,0.79345703125,-0.54931640625
1781667574.5465212,0.30526071166992186,0.016759411621093748,9.963470208740233,0.3662109375,0.732421875,-0.06103515625
1781667574.5505211,0.2932897033691406,0.051475335693359374,9.973047015380859,0.18310546875,0.30517578125,0.244140625
1781667574.554521,0.26695348510742184,0.016759411621093748,9.964667309570311,0.42724609375,-0.1220703125,0.732421875
1781667574.558521,0.23343466186523437,-0.017956512451171875,9.928754284667969,0.3662109375,0.1220703125,0.91552734375
1781667574.562521,0.18315642700195311,-0.07302315063476562,9.900023864746093,0.3662109375,0.18310546875,0.54931640625
1781667574.566521,0.15203180541992187,-0.06105214233398437,9.907206469726562,0.8544921875,0.244140625,0.1220703125
1781667574.5705209,0.13646949462890623,-0.033518823242187495,9.910797772216796,0.8544921875,0.3662109375,0.0
1781667574.5745208,0.14604630126953125,0.02154781494140625,9.95389340209961,0.79345703125,0.67138671875,0.06103515625
1781667574.5785208,0.17836802368164062,0.051475335693359374,9.967061511230469,0.3662109375,0.48828125,-0.06103515625
1781667574.5825207,0.23104046020507812,0.08499415893554688,9.994594830322265,0.244140625,0.0,0.18310546875
1781667574.5865207,0.21787235107421873,0.06703764648437499,9.97783541870117,-0.06103515625,-0.48828125,0.6103515625
1781667574.5905206,0.20709844360351562,0.033518823242187495,9.97783541870117,-0.6103515625,-0.79345703125,0.48828125
1781667574.5945206,0.12569558715820311,0.0,9.944316595458984,-0.6103515625,-0.8544921875,0.6103515625
1781667574.5985205,0.11252747802734374,-0.03591302490234375,9.925162982177733,-0.3662109375,-0.732421875,-0.06103515625
1781667574.6025205,0.12330138549804687,-0.05985504150390625,9.934739788818359,0.18310546875,-0.6103515625,-0.30517578125
1781667574.6065204,0.14245499877929688,-0.04908113403320312,9.941922393798828,0.18310546875,-0.91552734375,-0.3662109375
1781667574.6105204,0.2262520568847656,-0.016759411621093748,9.97184991455078,0.1220703125,-1.15966796875,-0.3662109375
1781667574.6145203,0.2693476867675781,0.010773907470703125,10.001777435302733,0.18310546875,-1.3427734375,-0.18310546875
1781667574.6185203,0.27293898925781246,0.062249243164062495,9.961076007080077,0.0,-1.3427734375,0.1220703125
1781667574.6225202,0.26336218261718747,0.05027823486328125,9.911994873046874,-0.18310546875,-1.40380859375,0.18310546875
1781667574.6265202,0.2813186950683594,0.027533319091796873,9.882067352294921,-0.18310546875,-1.0986328125,0.42724609375
1781667574.63052,0.2693476867675781,-0.03232172241210937,9.87727894897461,0.06103515625,-0.79345703125,0.48828125
1781667574.63452,0.2501940734863281,-0.040701428222656245,9.868899243164062,-0.18310546875,-0.54931640625,0.06103515625
1781667574.63852,0.24660277099609373,-0.05386953735351562,9.90840357055664,0.1220703125,-0.1220703125,0.06103515625
1781667574.64252,0.2920926025390625,-0.029927520751953124,9.941922393798828,0.18310546875,0.0,0.06103515625
1781667574.64652,0.2861070983886719,-0.028730419921875,9.961076007080077,0.0,0.0,-0.06103515625
1781667574.6505198,0.3016694091796875,-0.025139117431640625,9.98501802368164,0.06103515625,-0.244140625,0.30517578125
1781667574.6545198,0.29927520751953124,-0.033518823242187495,9.969455712890625,-0.18310546875,-0.732421875,0.244140625
1781667574.6585197,0.30885201416015623,-0.04548983154296875,9.958681805419921,0.06103515625,-0.732421875,0.42724609375
1781667574.6625197,0.30406361083984373,-0.08379705810546874,9.935936889648437,0.18310546875,-0.79345703125,0.3662109375
1781667574.6665196,0.30406361083984373,-0.06105214233398437,9.90241806640625,0.3662109375,-0.79345703125,0.1220703125
1781667574.6705196,0.2609679809570312,-0.08259995727539061,9.903615167236328,0.48828125,-0.67138671875,-0.1220703125
1781667574.6745195,0.27174188842773433,-0.05027823486328125,9.917980377197265,0.48828125,-0.244140625,0.0
1781667574.6785195,0.29448680419921874,0.0143652099609375,9.916783276367187,0.18310546875,-0.244140625,-0.48828125
1781667574.6825194,0.3268085266113281,0.029927520751953124,9.926360083007811,0.244140625,-0.244140625,-0.42724609375
1781667574.6865194,0.33039982910156246,0.04189852905273437,9.934739788818359,-0.1220703125,0.06103515625,-0.244140625
1781667574.6905193,0.32561142578124996,0.01915361328125,9.919177478027343,-0.30517578125,-0.1220703125,0.30517578125
1781667574.6945193,0.29927520751953124,-0.027533319091796873,9.90122096557617,-0.1220703125,0.0,0.244140625
1781667574.6985192,0.2980781066894531,-0.05746083984375,9.90241806640625,-0.18310546875,0.06103515625,0.244140625
1781667574.7025192,0.26336218261718747,-0.040701428222656245,9.879673150634765,0.54931640625,0.244140625,0.244140625
1781667574.7065191,0.22744915771484372,-0.05386953735351562,9.935936889648437,0.67138671875,0.30517578125,0.1220703125
1781667574.710519,0.2262520568847656,-0.03232172241210937,9.94671079711914,0.8544921875,0.48828125,-0.06103515625
1781667574.714519,0.28012159423828126,-0.04908113403320312,9.961076007080077,0.732421875,0.3662109375,0.06103515625
1781667574.718519,0.2741360900878906,0.017956512451171875,9.941922393798828,0.42724609375,0.30517578125,0.1220703125
1781667574.722519,0.24779987182617186,0.04668693237304687,9.947907897949218,0.48828125,0.1220703125,0.30517578125
1781667574.7265189,0.20231004028320312,0.044292730712890624,9.9215716796875,0.30517578125,0.06103515625,0.3662109375
1781667574.7305188,0.17238251953125,0.034715924072265626,9.90122096557617,0.0,0.0,0.1220703125
1781667574.7345188,0.16280571289062498,0.0143652099609375,9.904812268066406,0.0,0.18310546875,-0.18310546875
1781667574.7385187,0.12210428466796874,0.003591302490234375,9.916783276367187,0.0,0.42724609375,0.06103515625
1781667574.7425187,0.12689268798828124,0.03232172241210937,9.958681805419921,0.1220703125,0.1220703125,-0.1220703125
1781667574.7465186,0.14963760375976562,0.029927520751953124,10.012551342773437,0.06103515625,-0.06103515625,0.18310546875
1781667574.7505186,0.17956512451171874,0.011971008300781249,9.993397729492187,-0.42724609375,-0.54931640625,0.42724609375
1781667574.7545185,0.18914193115234373,-0.034715924072265626,10.006565838623047,-0.244140625,-0.79345703125,0.30517578125
1781667574.7585185,0.16160861206054686,-0.020350714111328123,9.963470208740233,-0.3662109375,-1.220703125,0.48828125
1781667574.7625184,0.14604630126953125,-0.013168109130859374,9.926360083007811,-0.1220703125,-1.46484375,0.30517578125
1781667574.7665184,0.16519991455078123,-0.0718260498046875,9.911994873046874,0.18310546875,-1.28173828125,0.30517578125
1781667574.7705183,0.19871873779296872,-0.04908113403320312,9.91558617553711,-0.06103515625,-1.28173828125,-0.06103515625
1781667574.7745183,0.21906945190429686,-0.04908113403320312,9.92755718383789,0.06103515625,-0.8544921875,-0.48828125
1781667574.7785182,0.2657563842773437,0.016759411621093748,9.900023864746093,0.0,-0.91552734375,-0.30517578125
1781667574.7825181,0.29448680419921874,0.009576806640625,9.925162982177733,-0.18310546875,-0.91552734375,-0.244140625
1781667574.786518,0.3064578125,0.020350714111328123,9.941922393798828,-0.42724609375,-0.6103515625,0.18310546875
1781667574.790518,0.3064578125,-0.0047884033203125,9.947907897949218,-0.18310546875,-0.8544921875,0.18310546875
1781667574.794518,0.2693476867675781,-0.023942016601562498,9.931148486328125,-0.3662109375,-0.91552734375,0.42724609375
1781667574.798518,0.27293898925781246,-0.05626373901367187,9.926360083007811,-0.18310546875,-0.732421875,0.06103515625
1781667574.802518,0.27174188842773433,-0.040701428222656245,9.907206469726562,0.30517578125,-0.48828125,0.244140625
1781667574.8065178,0.2980781066894531,-0.06464344482421874,9.879673150634765,0.42724609375,-0.48828125,0.18310546875
1781667574.8105178,0.3232172241210937,-0.003591302490234375,9.93354268798828,0.42724609375,-0.54931640625,0.0
1781667574.8145177,0.3363853332519531,-0.031124621582031248,9.93952819213867,0.1220703125,-0.42724609375,0.1220703125
1781667574.8185177,0.35673604736328124,0.0047884033203125,9.93952819213867,0.244140625,-0.54931640625,0.18310546875
1781667574.8225176,0.37828386230468747,0.013168109130859374,9.93354268798828,0.0,-0.42724609375,0.0
1781667574.8265176,0.33758243408203126,-0.001197100830078125,9.911994873046874,0.0,-0.30517578125,0.18310546875
1781667574.8305175,0.3136404174804687,-0.02633621826171875,9.892841259765625,-0.06103515625,-0.1220703125,0.0
1781667574.8345175,0.29089550170898437,-0.04189852905273437,9.900023864746093,-0.06103515625,-0.30517578125,0.06103515625
1781667574.8385174,0.28969840087890625,-0.047884033203124995,9.89523546142578,0.1220703125,0.06103515625,-0.244140625
1781667574.8425174,0.2825157958984375,-0.03232172241210937,9.920374578857421,0.18310546875,-0.1220703125,-0.06103515625
1781667574.8465173,0.28012159423828126,-0.040701428222656245,9.941922393798828,0.42724609375,0.1220703125,-0.06103515625
1781667574.8505173,0.3076549133300781,-0.0430956298828125,9.957484704589843,0.244140625,0.30517578125,-0.1220703125
1781667574.8545172,0.29568390502929687,-0.016759411621093748,9.967061511230469,0.54931640625,-0.1220703125,0.244140625
1781667574.8585172,0.2753331909179687,-0.023942016601562498,9.931148486328125,0.42724609375,0.06103515625,0.42724609375
1781667574.862517,0.2693476867675781,-0.0143652099609375,9.90840357055664,0.3662109375,0.0,0.42724609375
1781667574.866517,0.27174188842773433,-0.025139117431640625,9.911994873046874,0.54931640625,0.18310546875,0.30517578125
1781667574.870517,0.23223756103515625,-0.028730419921875,9.892841259765625,0.732421875,0.30517578125,0.3662109375
1781667574.874517,0.22026655273437498,-0.03232172241210937,9.90122096557617,0.6103515625,0.3662109375,0.3662109375
1781667574.878517,0.22744915771484372,-0.001197100830078125,9.931148486328125,0.48828125,0.54931640625,0.244140625
1781667574.8825169,0.21906945190429686,0.04908113403320312,9.967061511230469,0.0,0.91552734375,0.0
1781667574.8865168,0.19153613281249998,0.040701428222656245,9.95987890625,0.18310546875,0.48828125,0.244140625
1781667574.8905168,0.17118541870117188,0.05626373901367187,9.973047015380859,0.0,0.3662109375,0.30517578125
1781667574.8945167,0.13766659545898435,0.022744915771484374,9.97783541870117,0.06103515625,0.1220703125,0.18310546875
1781667574.8985167,0.1388636962890625,0.01915361328125,9.968258612060547,0.06103515625,-0.244140625,0.1220703125
1781667574.9025166,0.11013327636718749,0.062249243164062495,9.952696301269532,0.244140625,-0.42724609375,0.3662109375
1781667574.9065166,0.15083470458984374,0.015562310791015624,9.969455712890625,0.30517578125,-0.9765625,0.42724609375
1781667574.9105165,0.15083470458984374,0.001197100830078125,9.961076007080077,0.1220703125,-0.8544921875,0.06103515625
1781667574.9145164,0.18435352783203124,0.008379705810546874,9.975441217041014,0.0,-1.40380859375,0.18310546875
1781667574.9185164,0.19991583862304688,-0.005985504150390624,9.956287603759765,-0.1220703125,-1.220703125,-0.06103515625
1781667574.9225163,0.27174188842773433,0.015562310791015624,9.934739788818359,-0.244140625,-1.0986328125,-0.06103515625
1781667574.9265163,0.27293898925781246,0.04908113403320312,9.923965881347655,-0.244140625,-1.28173828125,-0.18310546875
1781667574.9305162,0.258573779296875,0.034715924072265626,9.900023864746093,-0.244140625,-1.03759765625,-0.18310546875
1781667574.9345162,0.2609679809570312,-0.013168109130859374,9.909600671386718,-0.30517578125,-1.28173828125,-0.18310546875
1781667574.9385161,0.27293898925781246,0.00718260498046875,9.900023864746093,-0.3662109375,-1.220703125,-0.1220703125
1781667574.942516,0.2645592834472656,-0.009576806640625,9.90840357055664,-0.42724609375,-0.6103515625,-0.06103515625
1781667574.946516,0.27293898925781246,-0.0430956298828125,9.920374578857421,-0.30517578125,-0.732421875,-0.1220703125
1781667574.950516,0.27892449340820313,-0.025139117431640625,9.955090502929687,-0.18310546875,-0.79345703125,0.0
1781667574.954516,0.28490999755859375,-0.0526724365234375,9.956287603759765,-0.18310546875,-0.91552734375,0.30517578125
1781667574.958516,0.30406361083984373,-0.08140285644531249,9.941922393798828,0.30517578125,-0.6103515625,0.18310546875
1781667574.9625158,0.30885201416015623,-0.06943184814453125,9.926360083007811,0.1220703125,-0.732421875,0.18310546875
1781667574.9665158,0.33039982910156246,-0.07541735229492187,9.9215716796875,0.42724609375,-0.67138671875,0.48828125
1781667574.9705157,0.3399766357421875,-0.04189852905273437,9.906009368896484,0.3662109375,-0.42724609375,0.244140625
1781667574.9745157,0.34117373657226563,-0.037110125732421874,9.903615167236328,0.244140625,-0.3662109375,0.1220703125
1781667574.9785156,0.31483751831054685,-0.02633621826171875,9.900023864746093,0.06103515625,-0.42724609375,-0.06103515625
1781667574.9825156,0.3136404174804687,-0.008379705810546874,9.911994873046874,-0.06103515625,-0.42724609375,-0.06103515625
1781667574.9865155,0.31962592163085934,-0.009576806640625,9.952696301269532,-0.30517578125,-0.18310546875,-0.1220703125
1781667574.9905155,0.29089550170898437,0.0,9.916783276367187,-0.42724609375,-0.30517578125,0.06103515625
1781667574.9945154,0.26216508178710934,-0.02633621826171875,9.929951385498047,-0.244140625,-0.06103515625,-0.1220703125
1781667574.9985154,0.25737667846679685,-0.0430956298828125,9.904812268066406,-0.1220703125,-0.1220703125,-0.1220703125
1781667575.0025153,0.2537853759765625,-0.08020575561523437,9.917980377197265,0.244140625,0.30517578125,0.18310546875
1781667575.0065153,0.2442085693359375,-0.06105214233398437,9.917980377197265,0.30517578125,0.06103515625,0.1220703125
1781667575.0105152,0.26336218261718747,-0.055066638183593745,9.944316595458984,0.732421875,0.06103515625,0.30517578125
1781667575.0145152,0.2537853759765625,-0.013168109130859374,9.944316595458984,0.67138671875,0.30517578125,0.244140625
1781667575.018515,0.23582886352539062,-0.01915361328125,9.944316595458984,0.732421875,0.3662109375,0.48828125
1781667575.022515,0.27174188842773433,-0.00718260498046875,9.925162982177733,0.6103515625,0.1220703125,0.1220703125
1781667575.026515,0.27174188842773433,-0.008379705810546874,9.929951385498047,0.42724609375,0.18310546875,0.42724609375
1781667575.030515,0.2346317626953125,0.015562310791015624,9.920374578857421,0.42724609375,0.30517578125,0.18310546875
1781667575.034515,0.19871873779296872,0.001197100830078125,9.903615167236328,0.42724609375,0.6103515625,0.1220703125
1781667575.0385149,0.22744915771484372,0.010773907470703125,9.91438907470703,0.18310546875,0.6103515625,-0.06103515625
1781667575.0425148,0.19153613281249998,0.008379705810546874,9.917980377197265,0.1220703125,0.3662109375,-0.3662109375
1781667575.0465147,0.19871873779296872,0.009576806640625,9.949104998779296,0.06103515625,0.1220703125,-0.3662109375
1781667575.0505147,0.1640028137207031,0.0143652099609375,9.980229620361328,0.30517578125,0.06103515625,0.1220703125
1781667575.0545146,0.13407529296874998,0.005985504150390624,9.99220062866211,0.0,-0.3662109375,0.0
1781667575.0585146,0.1592144104003906,0.029927520751953124,9.983820922851562,-0.06103515625,-0.3662109375,0.18310546875
1781667575.0625145,0.16759411621093748,0.034715924072265626,9.982623822021484,-0.06103515625,-0.67138671875,0.48828125
1781667575.0665145,0.17238251953125,-0.00239420166015625,9.958681805419921,0.1220703125,-0.79345703125,0.30517578125
1781667575.0705144,0.18076222534179687,0.028730419921875,9.969455712890625,0.06103515625,-0.91552734375,0.18310546875
1781667575.0745144,0.19991583862304688,0.011971008300781249,9.938331091308592,-0.06103515625,-0.8544921875,0.18310546875
1781667575.0785143,0.23582886352539062,0.02633621826171875,9.922768780517577,-0.3662109375,-1.03759765625,0.244140625
1781667575.0825143,0.22026655273437498,0.008379705810546874,9.937133990478515,-0.30517578125,-0.91552734375,0.3662109375
1781667575.0865142,0.2501940734863281,0.001197100830078125,9.941922393798828,-0.54931640625,-0.91552734375,-0.06103515625
1781667575.0905142,0.2442085693359375,0.001197100830078125,9.943119494628906,-0.54931640625,-0.9765625,0.0
1781667575.0945141,0.24660277099609373,0.00239420166015625,9.94671079711914,-0.30517578125,-0.8544921875,-0.244140625
1781667575.098514,0.2597708801269531,-0.017956512451171875,9.938331091308592,-0.54931640625,-1.03759765625,-0.06103515625
1781667575.102514,0.28490999755859375,-0.015562310791015624,9.94072529296875,-0.1220703125,-0.79345703125,-0.244140625
1781667575.106514,0.27892449340820313,-0.04548983154296875,9.91558617553711,-0.18310546875,-1.0986328125,0.06103515625
1781667575.110514,0.2765302917480469,-0.016759411621093748,9.928754284667969,0.06103515625,-0.8544921875,0.0
1781667575.1145139,0.27174188842773433,-0.0383072265625,9.934739788818359,0.1220703125,-0.79345703125,0.3662109375
1781667575.1185138,0.2920926025390625,-0.027533319091796873,9.943119494628906,-0.06103515625,-0.91552734375,0.30517578125
1781667575.1225138,0.32441432495117184,-0.016759411621093748,9.92755718383789,0.244140625,-0.8544921875,0.48828125
1781667575.1265137,0.3136404174804687,-0.016759411621093748,9.929951385498047,-0.1220703125,-0.54931640625,0.18310546875
1781667575.1305137,0.3064578125,-0.00239420166015625,9.910797772216796,0.06103515625,-0.244140625,0.30517578125
1781667575.1345136,0.296881005859375,0.0047884033203125,9.920374578857421,0.1220703125,-0.06103515625,0.30517578125
1781667575.1385136,0.3184288208007812,-0.003591302490234375,9.907206469726562,0.06103515625,0.06103515625,0.1220703125
1781667575.1425135,0.33518823242187495,-0.029927520751953124,9.91558617553711,-0.30517578125,0.06103515625,0.06103515625
1781667575.1465135,0.3232172241210937,-0.033518823242187495,9.91558617553711,0.0,0.0,-0.06103515625
1781667575.1505134,0.3232172241210937,-0.06823474731445311,9.94072529296875,0.0,-0.244140625,-0.06103515625
1781667575.1545134,0.29448680419921874,-0.09816226806640624,9.956287603759765,0.18310546875,0.1220703125,-0.1220703125
1781667575.1585133,0.2861070983886719,-0.0718260498046875,9.95987890625,0.48828125,0.06103515625,-0.18310546875
1781667575.1625133,0.2741360900878906,-0.051475335693359374,9.95389340209961,0.244140625,0.18310546875,-0.18310546875
1781667575.1665132,0.29927520751953124,-0.06464344482421874,9.931148486328125,0.6103515625,0.18310546875,0.06103515625
1781667575.1705132,0.27892449340820313,-0.047884033203124995,9.92755718383789,0.6103515625,0.1220703125,0.06103515625
1781667575.174513,0.2693476867675781,-0.01915361328125,9.89523546142578,0.48828125,0.3662109375,0.18310546875
1781667575.178513,0.2609679809570312,0.005985504150390624,9.89523546142578,0.79345703125,0.18310546875,0.42724609375
1781667575.182513,0.23343466186523437,0.016759411621093748,9.913191973876952,0.54931640625,0.48828125,0.244140625
1781667575.186513,0.229843359375,0.0,9.949104998779296,0.48828125,0.54931640625,0.1220703125
1781667575.190513,0.239420166015625,0.031124621582031248,9.961076007080077,0.48828125,0.48828125,0.1220703125
1781667575.1945128,0.2454056701660156,0.00239420166015625,9.947907897949218,0.244140625,0.54931640625,0.244140625
1781667575.1985128,0.20829554443359374,0.015562310791015624,9.920374578857421,0.244140625,0.42724609375,0.18310546875
1781667575.2025127,0.19153613281249998,0.005985504150390624,9.93952819213867,0.42724609375,0.42724609375,0.1220703125
1781667575.2065127,0.17118541870117188,-0.010773907470703125,9.952696301269532,0.3662109375,0.3662109375,0.1220703125
1781667575.2105126,0.17238251953125,-0.008379705810546874,9.949104998779296,0.3662109375,0.06103515625,0.0
1781667575.2145126,0.15322890625,0.011971008300781249,9.955090502929687,0.18310546875,-0.18310546875,0.244140625
1781667575.2185125,0.1771709228515625,0.037110125732421874,9.976638317871092,0.244140625,-0.18310546875,0.30517578125
1781667575.2225125,0.15322890625,0.04548983154296875,9.981426721191406,-0.1220703125,-0.6103515625,0.1220703125
1781667575.2265124,0.17836802368164062,0.037110125732421874,9.974244116210937,0.1220703125,-0.67138671875,0.244140625
1781667575.2305124,0.17956512451171874,0.031124621582031248,9.975441217041014,0.0,-0.6103515625,0.18310546875
1781667575.2345123,0.1879448303222656,0.029927520751953124,9.963470208740233,0.1220703125,-0.9765625,-0.06103515625
1781667575.2385123,0.201112939453125,-0.003591302490234375,9.913191973876952,-0.18310546875,-1.03759765625,0.244140625
1781667575.2425122,0.21308394775390624,-0.010773907470703125,9.897629663085937,-0.18310546875,-0.91552734375,-0.06103515625
1781667575.2465122,0.24181436767578124,0.00718260498046875,9.931148486328125,-0.3662109375,-1.220703125,-0.30517578125
1781667575.2505121,0.25258827514648435,-0.00239420166015625,9.94671079711914,-0.30517578125,-1.03759765625,-0.1220703125
1781667575.254512,0.2609679809570312,0.010773907470703125,9.941922393798828,-0.30517578125,-1.220703125,-0.1220703125
1781667575.258512,0.26216508178710934,0.022744915771484374,9.947907897949218,-0.244140625,-1.28173828125,-0.06103515625
1781667575.262512,0.2741360900878906,0.001197100830078125,9.968258612060547,-0.06103515625,-1.220703125,-0.06103515625
1781667575.266512,0.2753331909179687,-0.05626373901367187,9.956287603759765,-0.42724609375,-1.40380859375,0.06103515625
1781667575.2705119,0.29448680419921874,-0.08259995727539061,9.9215716796875,-0.244140625,-0.732421875,0.1220703125
1781667575.2745118,0.28371289672851563,-0.022744915771484374,9.904812268066406,-0.1220703125,-0.732421875,0.18310546875
1781667575.2785118,0.30047230834960936,-0.0430956298828125,9.90122096557617,0.18310546875,-0.67138671875,0.42724609375
1781667575.2825117,0.2885013000488281,-0.037110125732421874,9.90241806640625,0.1220703125,-0.732421875,0.1220703125
1781667575.2865117,0.30406361083984373,-0.040701428222656245,9.94671079711914,0.06103515625,-0.54931640625,0.3662109375
1781667575.2905116,0.3016694091796875,-0.013168109130859374,9.947907897949218,-0.1220703125,-0.54931640625,0.244140625
1781667575.2945116,0.33399113159179683,-0.03950432739257812,9.925162982177733,-0.1220703125,-0.54931640625,0.0
1781667575.2985115,0.3112462158203125,-0.034715924072265626,9.919177478027343,0.06103515625,-0.3662109375,0.18310546875
1781667575.3025115,0.3112462158203125,-0.051475335693359374,9.943119494628906,0.0,-0.244140625,0.18310546875
1781667575.3065114,0.296881005859375,-0.08738836059570312,9.900023864746093,0.06103515625,-0.48828125,0.1220703125
1781667575.3105114,0.296881005859375,-0.05626373901367187,9.910797772216796,0.30517578125,-0.1220703125,0.0
1781667575.3145113,0.3076549133300781,-0.03232172241210937,9.911994873046874,0.30517578125,-0.18310546875,0.0
1781667575.3185112,0.3232172241210937,-0.04908113403320312,9.94072529296875,0.42724609375,-0.1220703125,-0.1220703125
1781667575.3225112,0.29927520751953124,-0.0430956298828125,9.934739788818359,0.3662109375,-0.1220703125,0.1220703125
1781667575.3265111,0.3136404174804687,-0.010773907470703125,9.932345587158203,0.30517578125,0.06103515625,-0.18310546875
1781667575.330511,0.2657563842773437,-0.029927520751953124,9.93354268798828,0.3662109375,0.18310546875,0.244140625
1781667575.334511,0.2657563842773437,-0.013168109130859374,9.91438907470703,0.42724609375,0.244140625,0.244140625
1781667575.338511,0.2825157958984375,-0.022744915771484374,9.868899243164062,0.30517578125,0.30517578125,0.244140625
1781667575.342511,0.2454056701660156,-0.025139117431640625,9.884461553955077,0.42724609375,0.3662109375,0.3662109375
1781667575.346511,0.24301146850585936,0.013168109130859374,9.913191973876952,0.3662109375,0.48828125,0.244140625
1781667575.3505108,0.239420166015625,-0.028730419921875,9.929951385498047,0.3662109375,0.244140625,0.0
1781667575.3545108,0.2549824768066406,0.003591302490234375,9.957484704589843,0.42724609375,0.42724609375,0.3662109375
1781667575.3585107,0.2609679809570312,0.0,9.986215124511718,0.18310546875,0.30517578125,0.1220703125
1781667575.3625107,0.24061726684570311,-0.0143652099609375,9.969455712890625,0.06103515625,-0.06103515625,0.0
1781667575.3665106,0.1867477294921875,0.0143652099609375,9.949104998779296,0.3662109375,0.244140625,0.244140625
1781667575.3705106,0.18076222534179687,-0.015562310791015624,9.943119494628906,0.1220703125,-0.18310546875,0.0
1781667575.3745105,0.1867477294921875,0.013168109130859374,9.945513696289062,0.18310546875,-0.1220703125,0.06103515625
1781667575.3785105,0.17956512451171874,0.011971008300781249,9.951499200439452,0.18310546875,-0.30517578125,-0.18310546875
1781667575.3825104,0.181959326171875,0.005985504150390624,9.951499200439452,0.1220703125,-0.30517578125,0.06103515625
1781667575.3865104,0.20470424194335937,0.01915361328125,9.963470208740233,0.0,-0.48828125,0.1220703125
1781667575.3905103,0.2214636535644531,0.037110125732421874,9.986215124511718,0.0,-0.79345703125,0.1220703125
1781667575.3945103,0.21188684692382811,0.03591302490234375,9.976638317871092,-0.06103515625,-0.67138671875,0.06103515625
1781667575.3985102,0.21308394775390624,-0.00718260498046875,9.94072529296875,0.06103515625,-0.79345703125,0.244140625
1781667575.4025102,0.1927332336425781,0.0,9.932345587158203,-0.18310546875,-0.732421875,0.06103515625
1781667575.40651,0.2154781494140625,-0.009576806640625,9.932345587158203,-0.1220703125,-0.9765625,0.18310546875
1781667575.41051,0.23104046020507812,-0.00718260498046875,9.929951385498047,0.0,-0.8544921875,0.0
1781667575.41451,0.27174188842773433,-0.023942016601562498,9.93952819213867,-0.30517578125,-1.03759765625,0.18310546875
1781667575.41851,0.24181436767578124,0.010773907470703125,9.951499200439452,-0.1220703125,-0.9765625,-0.244140625
1781667575.42251,0.2442085693359375,0.00718260498046875,9.937133990478515,-0.1220703125,-0.8544921875,-0.06103515625
1781667575.4265099,0.2501940734863281,0.011971008300781249,9.952696301269532,-0.06103515625,-1.03759765625,0.18310546875
1781667575.4305098,0.2609679809570312,-0.013168109130859374,9.92755718383789,-0.3662109375,-0.9765625,-0.06103515625
1781667575.4345098,0.2597708801269531,-0.00239420166015625,9.898826763916015,-0.18310546875,-0.8544921875,0.06103515625
1781667575.4385097,0.26216508178710934,-0.040701428222656245,9.906009368896484,-0.06103515625,-0.91552734375,0.30517578125
1781667575.4425097,0.28012159423828126,-0.0526724365234375,9.911994873046874,0.244140625,-0.42724609375,0.0
1781667575.4465096,0.2765302917480469,-0.0047884033203125,9.911994873046874,0.18310546875,-0.6103515625,0.0
1781667575.4505095,0.2765302917480469,-0.03232172241210937,9.925162982177733,-0.06103515625,-0.42724609375,0.06103515625
1781667575.4545095,0.2920926025390625,-0.02633621826171875,9.94671079711914,0.06103515625,-0.48828125,0.1220703125
1781667575.4585094,0.3076549133300781,-0.008379705810546874,9.951499200439452,0.0,-0.244140625,0.30517578125
1781667575.4625094,0.29089550170898437,-0.04548983154296875,9.935936889648437,-0.06103515625,-0.30517578125,-0.06103515625
1781667575.4665093,0.2825157958984375,-0.0383072265625,9.910797772216796,-0.06103515625,-0.244140625,0.30517578125
1781667575.4705093,0.3016694091796875,-0.0383072265625,9.897629663085937,0.18310546875,-0.244140625,0.244140625
1781667575.4745092,0.26216508178710934,-0.047884033203124995,9.892841259765625,0.06103515625,0.06103515625,-0.1220703125
1781667575.4785092,0.2741360900878906,-0.04668693237304687,9.909600671386718,0.30517578125,-0.244140625,0.1220703125
1781667575.4825091,0.2657563842773437,-0.044292730712890624,9.93354268798828,0.18310546875,-0.06103515625,0.1220703125
1781667575.486509,0.2932897033691406,-0.0383072265625,9.944316595458984,0.30517578125,0.1220703125,-0.18310546875
1781667575.490509,0.2741360900878906,-0.015562310791015624,9.94671079711914,0.3662109375,-0.30517578125,0.18310546875
1781667575.494509,0.2597708801269531,-0.017956512451171875,9.95987890625,0.18310546875,-0.30517578125,0.0
1781667575.498509,0.24061726684570311,-0.037110125732421874,9.935936889648437,0.06103515625,-0.1220703125,0.0
1781667575.5025089,0.26695348510742184,-0.037110125732421874,9.91438907470703,0.30517578125,-0.06103515625,-0.06103515625
1781667575.5065088,0.24301146850585936,-0.01915361328125,9.917980377197265,0.54931640625,-0.18310546875,-0.1220703125
1781667575.5105088,0.24660277099609373,-0.029927520751953124,9.916783276367187,0.3662109375,-0.06103515625,0.0
1781667575.5145087,0.26695348510742184,-0.011971008300781249,9.919177478027343,0.48828125,0.244140625,0.06103515625
1781667575.5185087,0.2765302917480469,-0.005985504150390624,9.931148486328125,0.6103515625,0.0,0.06103515625
1781667575.5225086,0.2549824768066406,-0.00239420166015625,9.951499200439452,0.30517578125,0.0,0.1220703125
1781667575.5265086,0.2214636535644531,0.00718260498046875,9.947907897949218,0.18310546875,-0.30517578125,0.1220703125
1781667575.5305085,0.23104046020507812,0.008379705810546874,9.955090502929687,0.1220703125,0.0,0.3662109375
1781667575.5345085,0.21428104858398436,0.028730419921875,9.920374578857421,-0.1220703125,-0.1220703125,0.18310546875
1781667575.5385084,0.20350714111328125,0.0,9.91558617553711,0.3662109375,-0.30517578125,0.0
1781667575.5425084,0.2059013427734375,0.003591302490234375,9.916783276367187,0.18310546875,-0.1220703125,-0.06103515625
1781667575.5465083,0.201112939453125,-0.00239420166015625,9.920374578857421,0.244140625,-0.3662109375,0.0
1781667575.5505083,0.21068974609375,0.008379705810546874,9.935936889648437,0.18310546875,0.0,0.06103515625
1781667575.5545082,0.22385785522460935,-0.001197100830078125,9.94671079711914,0.06103515625,-0.30517578125,-0.1220703125
1781667575.5585082,0.20709844360351562,-0.029927520751953124,9.957484704589843,0.3662109375,-0.3662109375,0.1220703125
1781667575.562508,0.2154781494140625,-0.031124621582031248,9.974244116210937,-0.18310546875,-0.42724609375,0.06103515625
1781667575.566508,0.2154781494140625,-0.020350714111328123,9.949104998779296,0.1220703125,-0.54931640625,0.06103515625
1781667575.570508,0.22505495605468748,0.017956512451171875,9.94072529296875,0.244140625,-0.48828125,0.0
1781667575.574508,0.239420166015625,0.011971008300781249,9.928754284667969,0.1220703125,-0.8544921875,0.18310546875
1781667575.578508,0.21428104858398436,0.009576806640625,9.950302099609374,0.0,-0.6103515625,0.30517578125
1781667575.5825078,0.21906945190429686,0.0047884033203125,9.94671079711914,-0.1220703125,-0.30517578125,0.0
1781667575.5865078,0.23104046020507812,0.0,9.926360083007811,-0.244140625,-0.67138671875,0.0
1781667575.5905077,0.24899697265624998,0.022744915771484374,9.931148486328125,-0.06103515625,-0.48828125,0.06103515625
1781667575.5945077,0.27892449340820313,0.023942016601562498,9.919177478027343,-0.18310546875,-0.3662109375,0.244140625
1781667575.5985076,0.229843359375,-0.00718260498046875,9.920374578857421,0.0,-0.42724609375,0.244140625
1781667575.6025076,0.23582886352539062,-0.05386953735351562,9.949104998779296,-0.1220703125,-0.3662109375,0.244140625
1781667575.6065075,0.2549824768066406,-0.055066638183593745,9.925162982177733,0.0,-0.54931640625,0.1220703125
1781667575.6105075,0.2609679809570312,-0.044292730712890624,9.937133990478515,0.1220703125,-0.48828125,0.3662109375
1781667575.6145074,0.24181436767578124,-0.0383072265625,9.945513696289062,0.0,-0.67138671875,0.0
1781667575.6185074,0.27293898925781246,-0.06105214233398437,9.962273107910155,0.06103515625,-0.8544921875,0.1220703125
1781667575.6225073,0.28490999755859375,-0.00239420166015625,9.94072529296875,0.06103515625,-0.8544921875,0.1220703125
1781667575.6265073,0.2765302917480469,-0.027533319091796873,9.92755718383789,0.06103515625,-0.79345703125,-0.1220703125
1781667575.6305072,0.2765302917480469,0.017956512451171875,9.935936889648437,-0.06103515625,-0.8544921875,0.0
1781667575.6345072,0.277727392578125,0.0047884033203125,9.883264453125,0.06103515625,-0.732421875,-0.1220703125
1781667575.6385071,0.2825157958984375,-0.00718260498046875,9.884461553955077,0.06103515625,-0.54931640625,0.1220703125
1781667575.642507,0.2765302917480469,-0.020350714111328123,9.882067352294921,-0.1220703125,-0.244140625,0.244140625
1781667575.646507,0.26815058593749996,0.009576806640625,9.91558617553711,-0.1220703125,-0.244140625,0.0
1781667575.650507,0.2825157958984375,-0.009576806640625,9.943119494628906,0.1220703125,-0.18310546875,0.06103515625
1781667575.654507,0.25258827514648435,-0.017956512451171875,9.938331091308592,0.1220703125,-0.1220703125,0.42724609375
1781667575.6585069,0.29089550170898437,-0.027533319091796873,9.941922393798828,-0.1220703125,0.0,0.18310546875
1781667575.6625068,0.30526071166992186,-0.03591302490234375,9.945513696289062,0.06103515625,-0.1220703125,0.3662109375
1781667575.6665068,0.2549824768066406,-0.037110125732421874,9.93952819213867,0.1220703125,-0.3662109375,0.42724609375
1781667575.6705067,0.2693476867675781,-0.047884033203124995,9.950302099609374,0.18310546875,-0.3662109375,0.1220703125
1781667575.6745067,0.2693476867675781,-0.05386953735351562,9.934739788818359,0.30517578125,-0.244140625,0.0
1781667575.6785066,0.2645592834472656,-0.04908113403320312,9.932345587158203,0.244140625,-0.244140625,0.30517578125
1781667575.6825066,0.2705447875976562,-0.05027823486328125,9.94072529296875,0.244140625,-0.244140625,-0.1220703125
1781667575.6865065,0.27293898925781246,-0.008379705810546874,9.95389340209961,0.30517578125,-0.30517578125,0.0
1781667575.6905065,0.2693476867675781,-0.013168109130859374,9.945513696289062,0.1220703125,-0.244140625,0.06103515625
1781667575.6945064,0.27892449340820313,-0.0143652099609375,9.916783276367187,0.18310546875,-0.1220703125,-0.06103515625
1781667575.6985064,0.258573779296875,-0.0143652099609375,9.926360083007811,0.0,-0.244140625,-0.18310546875
1781667575.7025063,0.24181436767578124,-0.03591302490234375,9.938331091308592,0.1220703125,0.06103515625,0.0
1781667575.7065063,0.24301146850585936,-0.017956512451171875,9.922768780517577,0.1220703125,-0.1220703125,0.18310546875
1781667575.7105062,0.2442085693359375,-0.029927520751953124,9.945513696289062,0.18310546875,0.1220703125,0.1220703125
1781667575.7145061,0.2166752502441406,-0.037110125732421874,9.937133990478515,0.3662109375,-0.1220703125,0.244140625
1781667575.718506,0.26216508178710934,-0.027533319091796873,9.92755718383789,0.18310546875,-0.06103515625,0.06103515625
1781667575.7224586,0.24181436767578124,-0.01915361328125,9.94671079711914,0.3662109375,-0.18310546875,0.30517578125
1781667575.7264585,0.2501940734863281,-0.001197100830078125,9.962273107910155,0.3662109375,0.0,0.244140625
1781667575.7304585,0.22026655273437498,0.015562310791015624,9.945513696289062,0.30517578125,-0.1220703125,0.18310546875
1781667575.7344584,0.2166752502441406,-0.00718260498046875,9.928754284667969,0.30517578125,-0.1220703125,0.30517578125
1781667575.7384584,0.21308394775390624,-0.022744915771484374,9.916783276367187,0.06103515625,-0.30517578125,0.0
1781667575.7424583,0.22266075439453123,0.013168109130859374,9.93952819213867,0.1220703125,-0.244140625,0.0
1781667575.7464583,0.22744915771484372,0.00718260498046875,9.928754284667969,0.1220703125,-0.06103515625,-0.06103515625
1781667575.7504582,0.22505495605468748,-0.015562310791015624,9.93354268798828,0.0,-0.42724609375,-0.244140625
1781667575.7544582,0.22744915771484372,0.0143652099609375,9.943119494628906,-0.1220703125,-0.244140625,-0.18310546875
1781667575.7584581,0.24660277099609373,-0.010773907470703125,9.945513696289062,0.18310546875,-0.42724609375,0.18310546875
1781667575.762458,0.229843359375,-0.0047884033203125,9.94671079711914,-0.1220703125,-0.48828125,0.244140625
1781667575.766458,0.21188684692382811,-0.029927520751953124,9.934739788818359,0.18310546875,-0.48828125,0.1220703125
1781667575.770458,0.23343466186523437,0.0,9.925162982177733,0.06103515625,-0.67138671875,0.06103515625
1781667575.7744288,0.229843359375,-0.00239420166015625,9.934739788818359,0.0,-0.3662109375,0.0
1781667575.7784288,0.26815058593749996,0.03232172241210937,9.931148486328125,0.1220703125,-0.6103515625,0.244140625
1781667575.7824287,0.2501940734863281,-0.015562310791015624,9.938331091308592,0.244140625,-0.54931640625,0.244140625
1781667575.7864287,0.23343466186523437,0.0,9.93354268798828,-0.18310546875,-0.54931640625,0.1220703125
1781667575.7904286,0.2442085693359375,0.00239420166015625,9.93354268798828,0.0,-0.48828125,0.18310546875
1781667575.7944286,0.24779987182617186,-0.016759411621093748,9.920374578857421,-0.1220703125,-0.42724609375,0.1220703125
1781667575.7984285,0.25737667846679685,-0.023942016601562498,9.945513696289062,-0.06103515625,-0.54931640625,-0.06103515625
1781667575.8024285,0.26336218261718747,-0.034715924072265626,9.94072529296875,0.0,-0.54931640625,0.1220703125
1781667575.8064284,0.26695348510742184,-0.051475335693359374,9.935936889648437,0.1220703125,-0.6103515625,0.1220703125
1781667575.8104284,0.2537853759765625,-0.040701428222656245,9.93354268798828,-0.06103515625,-0.54931640625,-0.06103515625
1781667575.8144283,0.2657563842773437,-0.033518823242187495,9.938331091308592,-0.06103515625,-0.67138671875,0.06103515625
1781667575.8184283,0.2549824768066406,-0.02154781494140625,9.932345587158203,0.18310546875,-0.6103515625,-0.1220703125
1781667575.8224282,0.2753331909179687,-0.0143652099609375,9.941922393798828,0.1220703125,-0.732421875,0.0
1781667575.8264282,0.27892449340820313,-0.003591302490234375,9.909600671386718,0.06103515625,-0.42724609375,0.244140625
1781667575.8304281,0.258573779296875,-0.01915361328125,9.923965881347655,0.1220703125,-0.67138671875,0.244140625
1781667575.834428,0.2825157958984375,-0.009576806640625,9.906009368896484,0.18310546875,-0.3662109375,0.30517578125
1781667575.838428,0.27293898925781246,0.011971008300781249,9.91438907470703,0.30517578125,-0.54931640625,0.244140625
1781667575.842428,0.277727392578125,-0.01915361328125,9.90840357055664,0.18310546875,-0.1220703125,0.18310546875
1781667575.846428,0.26815058593749996,-0.011971008300781249,9.920374578857421,0.244140625,-0.244140625,0.1220703125
1781667575.8504279,0.2765302917480469,-0.027533319091796873,9.941922393798828,0.06103515625,0.0,-0.06103515625
1781667575.8544278,0.277727392578125,-0.033518823242187495,9.932345587158203,0.06103515625,0.06103515625,0.18310546875
1781667575.8584278,0.2765302917480469,-0.015562310791015624,9.9215716796875,0.18310546875,0.0,0.1220703125
1781667575.8624277,0.2549824768066406,-0.040701428222656245,9.945513696289062,0.06103515625,-0.1220703125,0.1220703125
1781667575.8664277,0.24181436767578124,-0.0143652099609375,9.923965881347655,0.18310546875,0.06103515625,0.18310546875
1781667575.8704276,0.23223756103515625,-0.037110125732421874,9.935936889648437,0.3662109375,-0.1220703125,0.18310546875
1781667575.8744276,0.2454056701660156,-0.0143652099609375,9.935936889648437,0.42724609375,-0.244140625,0.0
1781667575.8784275,0.2454056701660156,-0.003591302490234375,9.931148486328125,0.42724609375,-0.244140625,-0.06103515625
1781667575.8824275,0.24779987182617186,0.0047884033203125,9.932345587158203,0.244140625,-0.1220703125,0.18310546875
1781667575.8864274,0.22744915771484372,-0.02633621826171875,9.922768780517577,0.18310546875,0.18310546875,-0.06103515625
1781667575.8904274,0.24061726684570311,-0.0047884033203125,9.92755718383789,0.244140625,0.0,0.0
1781667575.8944273,0.23702596435546874,0.003591302490234375,9.944316595458984,0.3662109375,-0.18310546875,0.30517578125
1781667575.8984272,0.24899697265624998,-0.003591302490234375,9.911994873046874,0.3662109375,0.0,0.1220703125
1781667575.9024272,0.2262520568847656,0.013168109130859374,9.93354268798828,0.18310546875,0.0,0.18310546875
1781667575.9064271,0.22505495605468748,0.013168109130859374,9.917980377197265,0.18310546875,-0.1220703125,0.06103515625
1781667575.910427,0.23104046020507812,-0.031124621582031248,9.943119494628906,0.244140625,-0.3662109375,0.244140625
1781667575.914427,0.22505495605468748,-0.027533319091796873,9.945513696289062,0.1220703125,-0.1220703125,0.244140625
1781667575.918427,0.21428104858398436,-0.033518823242187495,9.961076007080077,0.06103515625,-0.30517578125,0.244140625
1781667575.922427,0.23223756103515625,-0.022744915771484374,9.934739788818359,0.1220703125,-0.48828125,0.06103515625
1781667575.926427,0.229843359375,-0.0143652099609375,9.934739788818359,0.1220703125,-0.54931640625,0.0
1781667575.9304268,0.22266075439453123,-0.011971008300781249,9.945513696289062,0.0,-0.42724609375,0.18310546875
1781667575.9344268,0.2442085693359375,-0.011971008300781249,9.926360083007811,-0.06103515625,-0.54931640625,-0.1220703125
1781667575.9384267,0.2346317626953125,-0.008379705810546874,9.916783276367187,0.0,-0.67138671875,0.0
1781667575.9424267,0.22385785522460935,0.003591302490234375,9.917980377197265,-0.06103515625,-0.42724609375,-0.30517578125
1781667575.9464266,0.2442085693359375,-0.016759411621093748,9.951499200439452,0.18310546875,-0.54931640625,-0.18310546875
1781667575.9504266,0.2645592834472656,-0.00239420166015625,9.94072529296875,-0.06103515625,-0.79345703125,0.0
1781667575.954413,0.2753331909179687,0.008379705810546874,9.943119494628906,0.1220703125,-0.42724609375,0.18310546875
1781667575.958413,0.27293898925781246,-0.003591302490234375,9.931148486328125,-0.06103515625,-0.6103515625,0.18310546875
1781667575.9624128,0.2609679809570312,0.0047884033203125,9.931148486328125,-0.18310546875,-0.42724609375,0.18310546875
1781667575.9664128,0.2561795776367187,-0.03232172241210937,9.925162982177733,-0.1220703125,-0.48828125,0.18310546875
1781667575.9704127,0.2454056701660156,-0.029927520751953124,9.922768780517577,0.1220703125,-0.6103515625,0.06103515625
1781667575.9744127,0.24899697265624998,-0.04548983154296875,9.922768780517577,-0.1220703125,-0.48828125,0.18310546875
1781667575.9784126,0.2657563842773437,-0.013168109130859374,9.91558617553711,0.244140625,-0.48828125,0.3662109375
1781667575.9824126,0.25258827514648435,-0.023942016601562498,9.91558617553711,-0.06103515625,-0.244140625,0.1220703125
1781667575.9864125,0.28012159423828126,-0.027533319091796873,9.917980377197265,0.30517578125,-0.48828125,-0.06103515625
1781667575.9904125,0.277727392578125,-0.037110125732421874,9.93952819213867,0.06103515625,-0.6103515625,0.0
1781667575.9944062,0.258573779296875,-0.029927520751953124,9.935936889648437,0.18310546875,-0.42724609375,0.244140625
1781667575.9984062,0.25737667846679685,0.001197100830078125,9.920374578857421,0.06103515625,-0.3662109375,-0.06103515625
1781667576.0024061,0.24061726684570311,-0.015562310791015624,9.93354268798828,0.0,-0.30517578125,0.0
1781667576.006406,0.25737667846679685,-0.037110125732421874,9.920374578857421,0.06103515625,-0.42724609375,-0.06103515625
1781667576.010406,0.25737667846679685,-0.037110125732421874,9.920374578857421,0.06103515625,-0.42724609375,-0.06103515625
1781667576.014406,0.25737667846679685,-0.044292730712890624,9.9215716796875,0.06103515625,-0.244140625,-0.06103515625
1781667576.018406,0.2920926025390625,-0.03232172241210937,9.92755718383789,-0.06103515625,-0.3662109375,0.1220703125
1781667576.0224059,0.24899697265624998,-0.0526724365234375,9.913191973876952,0.1220703125,-0.18310546875,0.0
1781667576.0264058,0.24061726684570311,-0.022744915771484374,9.943119494628906,0.06103515625,-0.48828125,0.244140625
1781667576.0304058,0.25737667846679685,0.00239420166015625,9.941922393798828,0.244140625,-0.42724609375,0.18310546875
1781667576.0344057,0.25737667846679685,0.00239420166015625,9.941922393798828,0.244140625,-0.42724609375,0.18310546875
1781667576.0384057,0.2753331909179687,-0.034715924072265626,9.925162982177733,0.30517578125,-0.1220703125,0.18310546875
1781667576.0424056,0.2537853759765625,-0.037110125732421874,9.913191973876952,-0.06103515625,0.06103515625,0.06103515625
1781667576.0464056,0.2705447875976562,-0.016759411621093748,9.925162982177733,0.30517578125,-0.06103515625,0.18310546875
1781667576.0504055,0.26336218261718747,-0.025139117431640625,9.952696301269532,0.06103515625,-0.18310546875,0.1220703125
1781667576.0544055,0.2693476867675781,-0.00239420166015625,9.950302099609374,0.244140625,-0.42724609375,0.18310546875
1781667576.0584054,0.25139117431640623,-0.005985504150390624,9.95389340209961,0.1220703125,-0.06103515625,-0.06103515625
1781667576.0624053,0.2442085693359375,-0.011971008300781249,9.961076007080077,0.0,-0.42724609375,0.06103515625
1781667576.0664053,0.239420166015625,-0.003591302490234375,9.951499200439452,-0.06103515625,-0.244140625,0.1220703125
1781667576.0703895,0.23343466186523437,-0.0047884033203125,9.945513696289062,0.06103515625,-0.3662109375,0.0
1781667576.0743895,0.22744915771484372,-0.028730419921875,9.93952819213867,0.244140625,-0.1220703125,0.18310546875
1781667576.0783894,0.23582886352539062,0.0,9.923965881347655,0.1220703125,-0.244140625,0.18310546875
1781667576.0823894,0.24899697265624998,-0.005985504150390624,9.923965881347655,0.1220703125,-0.244140625,0.06103515625
1781667576.0863893,0.23702596435546874,0.02154781494140625,9.949104998779296,0.244140625,-0.54931640625,0.244140625
1781667576.0903893,0.229843359375,-0.0143652099609375,9.951499200439452,0.30517578125,-0.244140625,0.18310546875
1781667576.0943892,0.23223756103515625,0.0143652099609375,9.938331091308592,-0.1220703125,-0.18310546875,-0.1220703125
1781667576.0983891,0.23343466186523437,-0.009576806640625,9.929951385498047,0.0,-0.48828125,0.30517578125
1781667576.102389,0.239420166015625,-0.017956512451171875,9.90840357055664,-0.06103515625,-0.42724609375,0.3662109375
1781667576.106389,0.21428104858398436,0.001197100830078125,9.925162982177733,0.06103515625,-0.67138671875,0.3662109375
1781667576.110389,0.25139117431640623,-0.027533319091796873,9.923965881347655,0.0,-0.3662109375,0.0
1781667576.114389,0.2442085693359375,-0.027533319091796873,9.945513696289062,0.1220703125,-0.54931640625,0.18310546875
1781667576.118389,0.2561795776367187,-0.0143652099609375,9.944316595458984,0.1220703125,-0.3662109375,0.06103515625
1781667576.1223888,0.23822306518554687,-0.025139117431640625,9.96586441040039,0.1220703125,-0.79345703125,0.06103515625
1781667576.1263888,0.23104046020507812,0.0047884033203125,9.94671079711914,-0.06103515625,-0.732421875,0.0
1781667576.1303887,0.2442085693359375,-0.022744915771484374,9.934739788818359,0.18310546875,-0.48828125,0.0
1781667576.1343887,0.25737667846679685,-0.029927520751953124,9.923965881347655,0.0,-0.48828125,0.06103515625
1781667576.1383886,0.24301146850585936,-0.03591302490234375,9.93952819213867,-0.06103515625,-0.54931640625,0.30517578125
1781667576.1423886,0.258573779296875,-0.025139117431640625,9.928754284667969,0.244140625,-0.30517578125,-0.1220703125
1781667576.1463885,0.2645592834472656,0.01915361328125,9.925162982177733,0.06103515625,-0.42724609375,-0.06103515625
1781667576.1503885,0.26216508178710934,0.00239420166015625,9.91438907470703,0.18310546875,-0.48828125,0.18310546875
1781667576.1543884,0.28730419921875,-0.003591302490234375,9.928754284667969,0.1220703125,-0.1220703125,0.06103515625
1781667576.1583884,0.2861070983886719,0.003591302490234375,9.94671079711914,0.06103515625,-0.48828125,0.244140625
1781667576.1623883,0.2861070983886719,0.003591302490234375,9.94671079711914,0.06103515625,-0.48828125,0.244140625
1781667576.1663883,0.2561795776367187,-0.003591302490234375,9.935936889648437,0.0,-0.42724609375,0.18310546875
1781667576.1703882,0.2705447875976562,-0.034715924072265626,9.947907897949218,0.06103515625,-0.30517578125,0.18310546875
1781667576.1743882,0.2597708801269531,0.0047884033203125,9.941922393798828,0.0,-0.48828125,0.30517578125
1781667576.178388,0.2597708801269531,0.0047884033203125,9.941922393798828,0.0,-0.48828125,0.30517578125
1781667576.182388,0.2442085693359375,-0.0047884033203125,9.917980377197265,0.06103515625,-0.30517578125,-0.06103515625
1781667576.186388,0.2753331909179687,-0.00239420166015625,9.917980377197265,0.06103515625,-0.18310546875,-0.06103515625
1781667576.190388,0.27293898925781246,0.001197100830078125,9.928754284667969,0.06103515625,-0.42724609375,-0.06103515625
1781667576.194388,0.29568390502929687,0.001197100830078125,9.941922393798828,-0.18310546875,-0.30517578125,0.244140625
1781667576.1983879,0.2609679809570312,0.016759411621093748,9.928754284667969,0.0,-0.244140625,0.18310546875
1781667576.2023878,0.23582886352539062,-0.010773907470703125,9.922768780517577,-0.06103515625,-0.30517578125,0.1220703125
1781667576.2063603,0.2501940734863281,-0.03591302490234375,9.94671079711914,-0.18310546875,-0.18310546875,0.1220703125
1781667576.2103603,0.2501940734863281,-0.033518823242187495,9.925162982177733,0.0,-0.30517578125,0.3662109375
1781667576.2143602,0.2537853759765625,-0.028730419921875,9.897629663085937,0.18310546875,-0.3662109375,0.18310546875
1781667576.2183602,0.277727392578125,-0.0143652099609375,9.94072529296875,0.06103515625,-0.30517578125,0.18310546875
1781667576.222338,0.2549824768066406,-0.016759411621093748,9.973047015380859,0.244140625,-0.30517578125,0.18310546875
1781667576.226338,0.2693476867675781,-0.015562310791015624,9.950302099609374,0.0,-0.3662109375,-0.1220703125
1781667576.2303379,0.2537853759765625,-0.008379705810546874,9.956287603759765,0.06103515625,-0.30517578125,0.244140625
1781667576.2343378,0.26216508178710934,-0.015562310791015624,9.962273107910155,0.3662109375,-0.42724609375,-0.1220703125
1781667576.2383378,0.25139117431640623,-0.06464344482421874,9.923965881347655,0.06103515625,-0.42724609375,0.30517578125
1781667576.2423377,0.2765302917480469,-0.017956512451171875,9.906009368896484,0.06103515625,-0.244140625,0.06103515625
1781667576.2463377,0.2657563842773437,-0.05626373901367187,9.911994873046874,0.1220703125,-0.30517578125,0.18310546875
1781667576.2503376,0.2609679809570312,-0.023942016601562498,9.90840357055664,0.1220703125,-0.30517578125,0.0
1781667576.2543375,0.24899697265624998,-0.023942016601562498,9.93354268798828,0.1220703125,-0.18310546875,0.244140625
1781667576.2583375,0.23343466186523437,-0.025139117431640625,9.947907897949218,0.06103515625,-0.54931640625,0.1220703125
1781667576.2623374,0.24660277099609373,-0.017956512451171875,9.957484704589843,0.0,-0.3662109375,0.1220703125
1781667576.2663374,0.24899697265624998,-0.010773907470703125,9.938331091308592,-0.1220703125,-0.3662109375,0.06103515625
1781667576.2703373,0.24061726684570311,-0.01915361328125,9.93952819213867,0.1220703125,-0.1220703125,0.18310546875
1781667576.2743373,0.23702596435546874,-0.016759411621093748,9.9215716796875,0.244140625,-0.18310546875,-0.1220703125
1781667576.2783372,0.229843359375,-0.0047884033203125,9.900023864746093,0.06103515625,-0.3662109375,0.1220703125
1781667576.2823372,0.23822306518554687,0.00718260498046875,9.94072529296875,0.18310546875,-0.30517578125,-0.06103515625
1781667576.2863371,0.24301146850585936,0.016759411621093748,9.92755718383789,0.48828125,-0.06103515625,0.244140625
1781667576.290337,0.23582886352539062,0.005985504150390624,9.949104998779296,0.18310546875,-0.3662109375,0.06103515625
1781667576.294337,0.258573779296875,-0.003591302490234375,9.956287603759765,0.0,-0.30517578125,0.0
1781667576.298337,0.258573779296875,-0.013168109130859374,9.957484704589843,0.1220703125,-0.3662109375,0.18310546875
1781667576.3023152,0.24181436767578124,-0.00718260498046875,9.944316595458984,0.1220703125,-0.48828125,0.18310546875
1781667576.3063152,0.22744915771484372,-0.020350714111328123,9.923965881347655,0.244140625,-0.1220703125,0.244140625
1781667576.3103151,0.23822306518554687,-0.001197100830078125,9.911994873046874,-0.06103515625,-0.54931640625,0.1220703125
1781667576.314315,0.24660277099609373,-0.003591302490234375,9.913191973876952,0.1220703125,-0.3662109375,-0.06103515625
1781667576.318315,0.23223756103515625,0.008379705810546874,9.92755718383789,0.1220703125,-0.3662109375,0.0
1781667576.3222513,0.25258827514648435,-0.015562310791015624,9.949104998779296,0.06103515625,-0.6103515625,-0.06103515625
1781667576.3262513,0.23343466186523437,-0.011971008300781249,9.950302099609374,-0.06103515625,-0.54931640625,0.06103515625
1781667576.3302512,0.2346317626953125,-0.020350714111328123,9.947907897949218,0.0,-0.732421875,0.1220703125
1781667576.3342512,0.2537853759765625,0.00239420166015625,9.947907897949218,-0.06103515625,-0.732421875,0.1220703125
1781667576.338251,0.2214636535644531,-0.03232172241210937,9.943119494628906,0.18310546875,-0.67138671875,0.06103515625
1781667576.342251,0.23104046020507812,-0.009576806640625,9.922768780517577,-0.244140625,-0.6103515625,0.1220703125
1781667576.346251,0.229843359375,-0.04548983154296875,9.907206469726562,0.18310546875,-0.54931640625,0.06103515625
1781667576.350251,0.23702596435546874,-0.02154781494140625,9.917980377197265,0.18310546875,-0.67138671875,0.18310546875
1781667576.354251,0.2645592834472656,-0.029927520751953124,9.958681805419921,0.0,-0.79345703125,0.0
1781667576.3582292,0.258573779296875,-0.01915361328125,9.961076007080077,-0.1220703125,-0.91552734375,0.06103515625
1781667576.3621647,0.2657563842773437,-0.022744915771484374,9.97783541870117,0.0,-0.79345703125,0.06103515625
1781667576.3661647,0.258573779296875,-0.037110125732421874,9.970652813720703,0.06103515625,-0.732421875,0.06103515625
1781667576.3701577,0.229843359375,-0.03950432739257812,9.928754284667969,-0.1220703125,-0.6103515625,0.0
1781667576.3741577,0.27293898925781246,-0.029927520751953124,9.907206469726562,-0.1220703125,-0.67138671875,-0.06103515625
1781667576.3781576,0.2537853759765625,-0.040701428222656245,9.897629663085937,0.18310546875,-0.54931640625,0.18310546875
1781667576.3821576,0.2609679809570312,-0.023942016601562498,9.904812268066406,0.0,-0.42724609375,0.06103515625
1781667576.3861575,0.3064578125,-0.03591302490234375,9.916783276367187,0.06103515625,-0.6103515625,-0.06103515625
1781667576.3901575,0.29448680419921874,-0.0047884033203125,9.91558617553711,0.18310546875,-0.244140625,0.0
1781667576.3941574,0.27174188842773433,-0.011971008300781249,9.929951385498047,-0.06103515625,-0.30517578125,0.18310546875
1781667576.3981574,0.28371289672851563,-0.0143652099609375,9.928754284667969,0.244140625,-0.3662109375,0.1220703125
1781667576.4021573,0.28012159423828126,-0.047884033203124995,9.923965881347655,-0.1220703125,-0.244140625,0.1220703125
1781667576.4061284,0.27892449340820313,-0.03232172241210937,9.920374578857421,0.1220703125,-0.06103515625,0.18310546875
1781667576.4101284,0.2885013000488281,-0.03232172241210937,9.897629663085937,0.06103515625,0.18310546875,0.18310546875
1781667576.4141283,0.27174188842773433,-0.027533319091796873,9.926360083007811,0.18310546875,-0.18310546875,0.06103515625
1781667576.4181283,0.25258827514648435,-0.04548983154296875,9.934739788818359,0.30517578125,-0.30517578125,0.0
1781667576.4221282,0.27293898925781246,-0.03950432739257812,9.944316595458984,0.244140625,-0.06103515625,0.18310546875
1781667576.4261277,0.2597708801269531,-0.03591302490234375,9.96586441040039,0.1220703125,-0.18310546875,0.0
1781667576.4301276,0.2549824768066406,-0.033518823242187495,9.96586441040039,0.30517578125,-0.30517578125,0.244140625
1781667576.4341276,0.258573779296875,-0.025139117431640625,9.93952819213867,0.18310546875,-0.1220703125,0.18310546875
1781667576.4381275,0.23582886352539062,-0.031124621582031248,9.93952819213867,0.42724609375,-0.18310546875,0.06103515625
1781667576.4421275,0.25139117431640623,-0.06703764648437499,9.932345587158203,0.54931640625,-0.30517578125,0.0
1781667576.4461274,0.2454056701660156,-0.06464344482421874,9.917980377197265,0.54931640625,-0.18310546875,0.0
1781667576.4501274,0.2501940734863281,-0.010773907470703125,9.93354268798828,0.1220703125,0.0,-0.06103515625
1781667576.4541273,0.2537853759765625,0.023942016601562498,9.919177478027343,0.18310546875,-0.06103515625,0.18310546875
1781667576.4581273,0.2693476867675781,0.02633621826171875,9.93354268798828,0.42724609375,-0.06103515625,0.244140625
1781667576.4621272,0.24301146850585936,0.027533319091796873,9.931148486328125,0.1220703125,-0.1220703125,0.0
1781667576.4661272,0.24061726684570311,-0.016759411621093748,9.95987890625,-0.06103515625,0.0,0.06103515625
1781667576.470127,0.258573779296875,0.001197100830078125,9.934739788818359,-0.1220703125,-0.244140625,-0.06103515625
1781667576.474127,0.20829554443359374,-0.016759411621093748,9.916783276367187,0.244140625,-0.244140625,0.48828125
1781667576.478127,0.23702596435546874,-0.022744915771484374,9.920374578857421,0.18310546875,-0.3662109375,0.06103515625
1781667576.482127,0.239420166015625,-0.03591302490234375,9.938331091308592,0.3662109375,-0.3662109375,0.244140625
1781667576.486127,0.23104046020507812,-0.037110125732421874,9.976638317871092,0.1220703125,-0.42724609375,0.0
1781667576.4901268,0.24061726684570311,-0.02154781494140625,9.96586441040039,0.18310546875,-0.42724609375,0.06103515625
1781667576.4941268,0.24779987182617186,0.011971008300781249,9.950302099609374,0.42724609375,-0.54931640625,0.06103515625
1781667576.4981267,0.25258827514648435,-0.001197100830078125,9.941922393798828,0.244140625,-0.54931640625,0.1220703125
1781667576.5021267,0.2549824768066406,-0.005985504150390624,9.91438907470703,0.244140625,-0.67138671875,0.1220703125
1781667576.5061266,0.2454056701660156,0.009576806640625,9.932345587158203,0.18310546875,-0.3662109375,0.06103515625
1781667576.5101266,0.23702596435546874,-0.01915361328125,9.913191973876952,-0.244140625,-0.42724609375,-0.1220703125
1781667576.5141265,0.23343466186523437,-0.023942016601562498,9.909600671386718,-0.06103515625,-0.42724609375,0.06103515625
1781667576.5181265,0.23702596435546874,-0.001197100830078125,9.916783276367187,0.0,-0.42724609375,0.06103515625
1781667576.5221148,0.23822306518554687,0.008379705810546874,9.932345587158203,0.06103515625,-0.30517578125,0.18310546875
1781667576.526095,0.23582886352539062,-0.04189852905273437,9.931148486328125,0.06103515625,-0.48828125,0.06103515625
1781667576.5300949,0.239420166015625,-0.023942016601562498,9.938331091308592,-0.06103515625,-0.3662109375,0.244140625
1781667576.5340948,0.2537853759765625,-0.047884033203124995,9.93952819213867,-0.1220703125,-0.30517578125,0.1220703125
1781667576.5380948,0.2549824768066406,-0.023942016601562498,9.926360083007811,0.18310546875,-0.48828125,0.0
1781667576.5420947,0.23822306518554687,-0.02633621826171875,9.92755718383789,0.06103515625,-0.732421875,0.3662109375
1781667576.5460947,0.2346317626953125,-0.031124621582031248,9.91558617553711,0.1220703125,-0.6103515625,0.1220703125
1781667576.5500946,0.22744915771484372,-0.051475335693359374,9.92755718383789,0.1220703125,-0.6103515625,0.18310546875
1781667576.5540946,0.25737667846679685,-0.0143652099609375,9.910797772216796,0.0,-0.3662109375,0.06103515625
1781667576.5580945,0.25139117431640623,-0.009576806640625,9.944316595458984,0.06103515625,-0.42724609375,0.0
1781667576.5620944,0.2657563842773437,-0.015562310791015624,9.917980377197265,0.18310546875,-0.42724609375,0.1220703125
1781667576.5660944,0.239420166015625,-0.017956512451171875,9.935936889648437,0.0,-0.244140625,0.1220703125
1781667576.5700943,0.2454056701660156,-0.04548983154296875,9.931148486328125,0.0,-0.42724609375,0.18310546875
1781667576.5740943,0.27892449340820313,-0.0430956298828125,9.913191973876952,-0.1220703125,-0.3662109375,-0.06103515625
1781667576.5780942,0.25258827514648435,-0.005985504150390624,9.91558617553711,0.1220703125,-0.48828125,0.1220703125
1781667576.5820942,0.258573779296875,-0.008379705810546874,9.93354268798828,-0.06103515625,-0.42724609375,0.18310546875
1781667576.5860941,0.28371289672851563,-0.0430956298828125,9.925162982177733,0.244140625,-0.244140625,0.30517578125
1781667576.590094,0.2501940734863281,-0.011971008300781249,9.920374578857421,0.06103515625,-0.54931640625,0.06103515625
1781667576.594094,0.2609679809570312,-0.003591302490234375,9.949104998779296,0.1220703125,-0.30517578125,0.0
1781667576.598094,0.2693476867675781,-0.009576806640625,9.93952819213867,0.0,-0.1220703125,0.244140625
1781667576.602094,0.2657563842773437,-0.0047884033203125,9.91438907470703,0.244140625,-0.18310546875,0.1220703125
1781667576.606094,0.26216508178710934,-0.028730419921875,9.929951385498047,0.244140625,-0.18310546875,0.244140625
1781667576.6100938,0.2813186950683594,0.0047884033203125,9.931148486328125,0.244140625,0.06103515625,0.244140625
1781667576.6140938,0.2597708801269531,-0.003591302490234375,9.935936889648437,0.0,-0.1220703125,0.1220703125
1781667576.6180937,0.25139117431640623,-0.00718260498046875,9.923965881347655,0.1220703125,-0.42724609375,0.1220703125
1781667576.6220639,0.26815058593749996,0.003591302490234375,9.94072529296875,-0.1220703125,-0.18310546875,0.30517578125
1781667576.6260638,0.23223756103515625,-0.023942016601562498,9.961076007080077,0.18310546875,-0.42724609375,0.244140625
1781667576.6300638,0.24061726684570311,-0.05746083984375,9.952696301269532,0.1220703125,-0.06103515625,0.30517578125
1781667576.6340637,0.2537853759765625,-0.05027823486328125,9.941922393798828,0.18310546875,-0.30517578125,-0.06103515625
1781667576.6380637,0.2753331909179687,-0.05746083984375,9.9215716796875,-0.1220703125,-0.3662109375,0.1220703125
1781667576.6420636,0.23104046020507812,-0.015562310791015624,9.917980377197265,0.1220703125,-0.30517578125,0.1220703125
1781667576.6460636,0.26695348510742184,-0.04189852905273437,9.937133990478515,0.244140625,-0.244140625,0.0
1781667576.6500635,0.2549824768066406,-0.023942016601562498,9.93354268798828,0.06103515625,-0.244140625,0.06103515625
1781667576.6540635,0.26815058593749996,0.0047884033203125,9.943119494628906,0.06103515625,-0.30517578125,0.30517578125
1781667576.6580634,0.239420166015625,-0.0143652099609375,9.937133990478515,0.0,-0.1220703125,0.06103515625
1781667576.6620405,0.2813186950683594,-0.020350714111328123,9.929951385498047,-0.06103515625,-0.30517578125,0.06103515625
1781667576.6660404,0.2442085693359375,-0.031124621582031248,9.935936889648437,-0.06103515625,-0.18310546875,0.1220703125
1781667576.6700404,0.2346317626953125,-0.04548983154296875,9.9215716796875,0.18310546875,-0.1220703125,0.244140625
1781667576.6740162,0.239420166015625,-0.05985504150390625,9.926360083007811,0.1220703125,-0.3662109375,0.06103515625
1781667576.6780162,0.2561795776367187,-0.011971008300781249,9.922768780517577,0.30517578125,-0.06103515625,-0.06103515625
1781667576.6820161,0.2537853759765625,-0.023942016601562498,9.93952819213867,0.42724609375,-0.3662109375,0.1220703125
1781667576.686016,0.2657563842773437,-0.008379705810546874,9.96586441040039,0.244140625,0.0,0.3662109375
1781667576.690016,0.2561795776367187,0.028730419921875,9.935936889648437,0.1220703125,-0.54931640625,0.18310546875
1781667576.694016,0.2609679809570312,0.02154781494140625,9.943119494628906,0.18310546875,-0.244140625,0.18310546875
1781667576.698016,0.25737667846679685,0.001197100830078125,9.91558617553711,-0.06103515625,-0.42724609375,-0.06103515625
1781667576.7020159,0.2549824768066406,0.0143652099609375,9.917980377197265,-0.1220703125,-0.18310546875,0.244140625
1781667576.7060158,0.24899697265624998,-0.017956512451171875,9.913191973876952,0.0,-0.1220703125,0.1220703125
1781667576.7100158,0.23702596435546874,-0.0047884033203125,9.920374578857421,0.1220703125,-0.3662109375,-0.1220703125
1781667576.7140157,0.24660277099609373,-0.022744915771484374,9.93952819213867,0.0,-0.30517578125,-0.1220703125
1781667576.7180157,0.24779987182617186,-0.00718260498046875,9.925162982177733,0.06103515625,-0.18310546875,0.0
1781667576.7220156,0.26695348510742184,-0.016759411621093748,9.963470208740233,0.30517578125,-0.1220703125,0.06103515625
1781667576.7260156,0.23822306518554687,-0.016759411621093748,9.958681805419921,0.1220703125,-0.48828125,0.18310546875
1781667576.7300155,0.239420166015625,-0.015562310791015624,9.947907897949218,0.1220703125,-0.42724609375,0.18310546875
1781667576.7340155,0.2442085693359375,0.0047884033203125,9.941922393798828,0.1220703125,-0.48828125,0.30517578125
1781667576.7380154,0.24061726684570311,-0.028730419921875,9.934739788818359,0.06103515625,-0.48828125,0.30517578125
1781667576.7420154,0.2346317626953125,-0.028730419921875,9.917980377197265,0.0,-0.6103515625,0.244140625
1781667576.7460153,0.24660277099609373,-0.010773907470703125,9.92755718383789,0.0,-0.18310546875,0.244140625
1781667576.7500153,0.23343466186523437,-0.013168109130859374,9.93952819213867,0.1220703125,-0.244140625,0.0
1781667576.7540152,0.26336218261718747,-0.010773907470703125,9.934739788818359,-0.1220703125,-0.3662109375,-0.1220703125
1781667576.7580152,0.2657563842773437,-0.0143652099609375,9.943119494628906,0.0,-0.42724609375,0.1220703125
1781667576.762015,0.25258827514648435,-0.001197100830078125,9.951499200439452,-0.06103515625,-0.48828125,-0.1220703125
1781667576.766015,0.22744915771484372,-0.00718260498046875,9.961076007080077,0.1220703125,-0.67138671875,0.0
1781667576.770015,0.27293898925781246,-0.04548983154296875,9.943119494628906,0.0,-0.48828125,-0.06103515625
1781667576.774015,0.24899697265624998,-0.033518823242187495,9.920374578857421,-0.1220703125,-0.732421875,0.1220703125
1781667576.778015,0.24660277099609373,-0.027533319091796873,9.935936889648437,0.06103515625,-0.732421875,0.1220703125
1781667576.7820148,0.2442085693359375,-0.037110125732421874,9.929951385498047,0.3662109375,-0.67138671875,0.18310546875
1781667576.7860148,0.2693476867675781,-0.01915361328125,9.93952819213867,0.42724609375,-0.6103515625,0.42724609375
1781667576.7900147,0.2753331909179687,-0.005985504150390624,9.945513696289062,0.1220703125,-0.30517578125,0.18310546875
1781667576.7940147,0.2597708801269531,0.003591302490234375,9.931148486328125,-0.1220703125,-0.42724609375,0.1220703125
1781667576.7980146,0.2861070983886719,-0.020350714111328123,9.92755718383789,0.0,-0.30517578125,0.244140625
1781667576.8020146,0.28969840087890625,-0.003591302490234375,9.91558617553711,0.0,-0.18310546875,0.1220703125
1781667576.8060145,0.2561795776367187,-0.015562310791015624,9.909600671386718,-0.06103515625,-0.30517578125,0.0
1781667576.8100145,0.24301146850585936,-0.023942016601562498,9.934739788818359,-0.06103515625,0.0,0.06103515625
1781667576.8140144,0.24660277099609373,-0.028730419921875,9.919177478027343,-0.06103515625,-0.18310546875,0.1220703125
1781667576.818013,0.27174188842773433,-0.0143652099609375,9.917980377197265,0.0,0.06103515625,0.1220703125
1781667576.822013,0.239420166015625,-0.016759411621093748,9.94671079711914,0.06103515625,-0.06103515625,-0.06103515625
1781667576.8260128,0.24181436767578124,-0.028730419921875,9.957484704589843,0.30517578125,-0.06103515625,-0.06103515625
1781667576.8300128,0.2549824768066406,-0.016759411621093748,9.934739788818359,0.244140625,-0.1220703125,0.1220703125
1781667576.8340127,0.23702596435546874,-0.015562310791015624,9.931148486328125,0.42724609375,-0.18310546875,0.1220703125
1781667576.8380127,0.23822306518554687,0.015562310791015624,9.9215716796875,0.18310546875,0.0,0.06103515625
1781667576.841963,0.25139117431640623,0.011971008300781249,9.91438907470703,0.244140625,-0.1220703125,0.244140625
1781667576.845963,0.2561795776367187,-0.013168109130859374,9.90122096557617,0.30517578125,-0.30517578125,0.0
1781667576.849963,0.2501940734863281,0.016759411621093748,9.911994873046874,0.1220703125,-0.18310546875,0.1220703125
1781667576.853963,0.24779987182617186,0.020350714111328123,9.922768780517577,0.06103515625,-0.244140625,0.06103515625
1781667576.8579628,0.2645592834472656,0.003591302490234375,9.937133990478515,0.06103515625,-0.06103515625,0.244140625
1781667576.8619628,0.23223756103515625,0.027533319091796873,9.955090502929687,0.06103515625,0.06103515625,0.0
1781667576.8659627,0.22385785522460935,-0.011971008300781249,9.949104998779296,-0.1220703125,-0.06103515625,0.06103515625
1781667576.8699627,0.229843359375,-0.02633621826171875,9.945513696289062,0.1220703125,-0.18310546875,-0.06103515625
1781667576.8739336,0.22744915771484372,-0.04668693237304687,9.941922393798828,0.3662109375,-0.1220703125,0.06103515625
1781667576.8779335,0.229843359375,-0.05746083984375,9.928754284667969,0.18310546875,-0.3662109375,0.244140625
1781667576.8819335,0.2442085693359375,-0.029927520751953124,9.941922393798828,0.3662109375,-0.54931640625,0.42724609375
1781667576.8859334,0.2346317626953125,0.015562310791015624,9.968258612060547,0.3662109375,-0.48828125,0.1220703125
1781667576.8899333,0.2154781494140625,-0.025139117431640625,9.964667309570311,-0.06103515625,-0.48828125,0.06103515625
1781667576.8939333,0.22505495605468748,-0.005985504150390624,9.932345587158203,-0.244140625,-0.67138671875,0.18310546875
1781667576.8979332,0.2501940734863281,-0.0047884033203125,9.937133990478515,0.244140625,-0.42724609375,-0.06103515625
1781667576.9019332,0.2454056701660156,0.008379705810546874,9.928754284667969,0.06103515625,-0.79345703125,0.06103515625
1781667576.9059331,0.2645592834472656,0.0,9.896432562255859,-0.1220703125,-0.54931640625,0.0
1781667576.909933,0.23702596435546874,-0.00239420166015625,9.91438907470703,0.06103515625,-0.6103515625,0.0
1781667576.9139326,0.24301146850585936,-0.005985504150390624,9.928754284667969,-0.48828125,-0.3662109375,0.0
1781667576.9179325,0.28371289672851563,-0.011971008300781249,9.935936889648437,-0.06103515625,-0.18310546875,-0.1220703125
1781667576.9219325,0.24061726684570311,0.001197100830078125,9.943119494628906,-0.244140625,-0.48828125,-0.18310546875
1781667576.9259324,0.2549824768066406,-0.02154781494140625,9.935936889648437,-0.06103515625,-0.54931640625,0.0
1781667576.9298954,0.25737667846679685,-0.027533319091796873,9.944316595458984,-0.1220703125,-0.42724609375,0.244140625
1781667576.9338953,0.26216508178710934,-0.05027823486328125,9.929951385498047,0.06103515625,-0.6103515625,0.1220703125
1781667576.9378805,0.24301146850585936,-0.013168109130859374,9.91438907470703,0.18310546875,-0.6103515625,0.30517578125
1781667576.9418657,0.2609679809570312,-0.005985504150390624,9.917980377197265,0.1220703125,-0.42724609375,0.244140625
1781667576.9458656,0.26216508178710934,0.00239420166015625,9.925162982177733,0.42724609375,-0.42724609375,0.244140625
1781667576.9498656,0.27293898925781246,-0.023942016601562498,9.907206469726562,0.0,-0.48828125,0.06103515625
1781667576.9538655,0.2753331909179687,-0.00718260498046875,9.919177478027343,-0.1220703125,-0.1220703125,-0.06103515625
1781667576.9578655,0.23702596435546874,-0.034715924072265626,9.923965881347655,0.1220703125,-0.244140625,0.0
1781667576.9618654,0.2645592834472656,-0.00239420166015625,9.93952819213867,-0.1220703125,-0.30517578125,0.1220703125
1781667576.9658654,0.26695348510742184,-0.05027823486328125,9.91558617553711,-0.06103515625,-0.3662109375,0.1220703125
1781667576.9698653,0.2693476867675781,-0.027533319091796873,9.906009368896484,-0.06103515625,-0.30517578125,0.0
1781667576.9738653,0.2705447875976562,-0.03232172241210937,9.926360083007811,0.1220703125,-0.42724609375,0.06103515625
1781667576.9778652,0.24181436767578124,-0.034715924072265626,9.93354268798828,0.18310546875,-0.18310546875,0.1220703125
1781667576.9818652,0.25258827514648435,-0.03591302490234375,9.929951385498047,0.3662109375,-0.1220703125,0.1220703125
1781667576.985865,0.25258827514648435,-0.03591302490234375,9.931148486328125,0.244140625,-0.48828125,0.18310546875
1781667576.989865,0.2645592834472656,-0.020350714111328123,9.926360083007811,0.244140625,-0.18310546875,0.42724609375
1781667576.993865,0.25258827514648435,0.005985504150390624,9.945513696289062,0.3662109375,-0.1220703125,0.18310546875
1781667576.997865,0.2442085693359375,-0.003591302490234375,9.925162982177733,0.06103515625,-0.244140625,0.06103515625
1781667577.001865,0.2645592834472656,-0.00718260498046875,9.934739788818359,0.18310546875,-0.18310546875,0.18310546875
1781667577.0058649,0.26695348510742184,0.00239420166015625,9.913191973876952,0.42724609375,-0.18310546875,0.1220703125
1781667577.0098648,0.23822306518554687,-0.00239420166015625,9.944316595458984,0.1220703125,-0.1220703125,0.18310546875
1781667577.0138648,0.2645592834472656,-0.0047884033203125,9.94671079711914,0.18310546875,-0.3662109375,-0.06103515625
1781667577.0178647,0.2454056701660156,-0.009576806640625,9.935936889648437,0.18310546875,-0.244140625,0.0
1781667577.0218647,0.239420166015625,-0.001197100830078125,9.926360083007811,0.244140625,-0.06103515625,0.1220703125
1781667577.0258646,0.24899697265624998,-0.00718260498046875,9.951499200439452,0.1220703125,-0.3662109375,0.1220703125
1781667577.0298645,0.2346317626953125,-0.051475335693359374,9.950302099609374,0.1220703125,-0.244140625,0.18310546875
1781667577.0338645,0.24181436767578124,-0.051475335693359374,9.937133990478515,0.18310546875,-0.48828125,0.1220703125
1781667577.0378644,0.23223756103515625,-0.0047884033203125,9.928754284667969,0.1220703125,-0.30517578125,-0.18310546875
1781667577.0418644,0.2537853759765625,0.008379705810546874,9.943119494628906,0.244140625,-0.30517578125,0.18310546875
1781667577.0458643,0.2561795776367187,-0.013168109130859374,9.910797772216796,0.06103515625,-0.244140625,0.18310546875
1781667577.0498643,0.239420166015625,-0.016759411621093748,9.937133990478515,0.06103515625,-0.42724609375,-0.06103515625
1781667577.0538642,0.2442085693359375,-0.01915361328125,9.947907897949218,0.06103515625,-0.3662109375,0.0
1781667577.0578642,0.23822306518554687,-0.01915361328125,9.93354268798828,0.06103515625,-0.3662109375,0.3662109375
1781667577.0618641,0.22744915771484372,-0.00239420166015625,9.9215716796875,0.06103515625,-0.30517578125,0.0
1781667577.065864,0.26336218261718747,-0.025139117431640625,9.917980377197265,0.18310546875,-0.18310546875,0.18310546875
1781667577.069864,0.23104046020507812,-0.011971008300781249,9.920374578857421,0.1220703125,-0.244140625,0.1220703125
1781667577.073864,0.2454056701660156,-0.03591302490234375,9.941922393798828,0.1220703125,-0.30517578125,-0.06103515625
1781667577.077864,0.23822306518554687,-0.08259995727539061,9.941922393798828,0.244140625,-0.3662109375,0.30517578125
1781667577.0818639,0.23343466186523437,-0.020350714111328123,9.958681805419921,0.244140625,-0.48828125,-0.1220703125
1781667577.0858638,0.2501940734863281,-0.008379705810546874,9.937133990478515,0.0,-0.48828125,-0.06103515625
1781667577.0898638,0.24899697265624998,-0.02633621826171875,9.922768780517577,0.244140625,-0.6103515625,0.3662109375
1781667577.0938637,0.24181436767578124,-0.010773907470703125,9.913191973876952,0.18310546875,-0.54931640625,0.0
1781667577.0978637,0.2501940734863281,-0.033518823242187495,9.950302099609374,0.30517578125,-0.30517578125,0.0
1781667577.1018636,0.25139117431640623,-0.013168109130859374,9.931148486328125,0.30517578125,-0.244140625,0.1220703125
1781667577.1058636,0.2501940734863281,-0.031124621582031248,9.923965881347655,0.244140625,-0.18310546875,0.18310546875
1781667577.1098635,0.23582886352539062,0.009576806640625,9.904812268066406,0.1220703125,-0.244140625,0.18310546875
1781667577.1138635,0.2549824768066406,0.016759411621093748,9.90840357055664,0.1220703125,-0.30517578125,0.1220703125
1781667577.1178634,0.24899697265624998,-0.02154781494140625,9.928754284667969,0.1220703125,-0.1220703125,0.1220703125
1781667577.1218634,0.24779987182617186,0.011971008300781249,9.938331091308592,-0.06103515625,-0.06103515625,0.30517578125
1781667577.1258633,0.24779987182617186,-0.025139117431640625,9.949104998779296,-0.1220703125,-0.30517578125,0.1220703125
1781667577.1298633,0.27892449340820313,-0.0383072265625,9.943119494628906,-0.06103515625,-0.1220703125,0.06103515625
1781667577.1338632,0.24301146850585936,-0.008379705810546874,9.931148486328125,0.18310546875,-0.18310546875,0.06103515625
1781667577.1378632,0.2262520568847656,-0.02154781494140625,9.923965881347655,0.06103515625,-0.30517578125,0.06103515625
1781667577.141863,0.24301146850585936,-0.05626373901367187,9.93354268798828,0.3662109375,-0.30517578125,-0.06103515625
1781667577.145863,0.24181436767578124,-0.025139117431640625,9.932345587158203,0.48828125,-0.30517578125,0.244140625
1781667577.149863,0.2537853759765625,0.001197100830078125,9.934739788818359,0.18310546875,-0.54931640625,0.244140625
1781667577.153863,0.25139117431640623,0.00239420166015625,9.938331091308592,0.18310546875,-0.42724609375,0.0
1781667577.157863,0.258573779296875,0.009576806640625,9.943119494628906,0.18310546875,-0.42724609375,0.18310546875
1781667577.1618629,0.2645592834472656,-0.033518823242187495,9.949104998779296,-0.06103515625,-0.48828125,0.1220703125
1781667577.1658628,0.2501940734863281,0.005985504150390624,9.922768780517577,0.244140625,-0.30517578125,-0.06103515625
1781667577.1698627,0.24779987182617186,-0.01915361328125,9.917980377197265,0.06103515625,-0.3662109375,-0.1220703125
1781667577.1738627,0.26336218261718747,-0.011971008300781249,9.92755718383789,-0.06103515625,-0.42724609375,-0.06103515625
1781667577.1778626,0.2657563842773437,0.013168109130859374,9.963470208740233,0.06103515625,-0.48828125,-0.06103515625
1781667577.1818626,0.25737667846679685,-0.029927520751953124,9.91438907470703,-0.06103515625,-0.48828125,0.0
1781667577.1858625,0.2537853759765625,0.00239420166015625,9.90840357055664,-0.1220703125,-0.54931640625,0.1220703125
1781667577.1898625,0.26336218261718747,-0.0143652099609375,9.952696301269532,-0.06103515625,-0.42724609375,0.1220703125
1781667577.1938624,0.24181436767578124,-0.02633621826171875,9.951499200439452,-0.06103515625,-0.67138671875,0.18310546875
1781667577.1978624,0.24181436767578124,-0.044292730712890624,9.935936889648437,0.42724609375,-0.244140625,0.1220703125
1781667577.2018623,0.24899697265624998,-0.0143652099609375,9.926360083007811,0.30517578125,-0.6103515625,0.06103515625
1781667577.2058623,0.24779987182617186,-0.005985504150390624,9.951499200439452,0.1220703125,-0.244140625,0.18310546875
1781667577.2098622,0.2346317626953125,-0.0047884033203125,9.925162982177733,0.1220703125,-0.54931640625,0.0
1781667577.2138622,0.26216508178710934,-0.008379705810546874,9.909600671386718,0.30517578125,-0.3662109375,0.0
1781667577.2178621,0.2980781066894531,-0.001197100830078125,9.925162982177733,0.18310546875,-0.244140625,-0.06103515625
1781667577.221862,0.2741360900878906,-0.013168109130859374,9.907206469726562,0.06103515625,-0.30517578125,0.1220703125
1781667577.2258406,0.27293898925781246,-0.008379705810546874,9.941922393798828,-0.1220703125,-0.3662109375,0.06103515625
1781667577.2298405,0.22266075439453123,-0.025139117431640625,9.93952819213867,0.18310546875,-0.30517578125,-0.1220703125
1781667577.2338405,0.25258827514648435,-0.0383072265625,9.919177478027343,0.1220703125,0.1220703125,0.0
1781667577.2378404,0.2442085693359375,-0.06344634399414062,9.925162982177733,0.06103515625,-0.06103515625,0.1220703125
1781667577.2418404,0.24181436767578124,-0.03232172241210937,9.945513696289062,0.1220703125,-0.1220703125,0.06103515625
1781667577.2458403,0.24779987182617186,-0.003591302490234375,9.958681805419921,0.18310546875,-0.1220703125,0.244140625
1781667577.2498403,0.2442085693359375,-0.017956512451171875,9.920374578857421,0.18310546875,-0.30517578125,0.30517578125
1781667577.2537956,0.229843359375,-0.008379705810546874,9.928754284667969,0.3662109375,-0.3662109375,0.1220703125
1781667577.2577956,0.25737667846679685,-0.027533319091796873,9.943119494628906,0.244140625,-0.3662109375,0.244140625
1781667577.2617955,0.22744915771484372,-0.011971008300781249,9.931148486328125,0.244140625,-0.1220703125,0.244140625
1781667577.2657955,0.23223756103515625,-0.0047884033203125,9.916783276367187,0.30517578125,-0.3662109375,0.3662109375
1781667577.2697473,0.2454056701660156,-0.0047884033203125,9.945513696289062,0.3662109375,0.0,0.0
1781667577.2737472,0.23582886352539062,-0.0430956298828125,9.94671079711914,0.18310546875,-0.1220703125,0.06103515625
1781667577.2777472,0.229843359375,-0.015562310791015624,9.944316595458984,0.18310546875,-0.244140625,-0.1220703125
1781667577.281747,0.24181436767578124,-0.009576806640625,9.925162982177733,0.18310546875,-0.18310546875,0.0
1781667577.285747,0.23822306518554687,0.001197100830078125,9.963470208740233,-0.06103515625,-0.6103515625,0.0
1781667577.289747,0.2705447875976562,-0.005985504150390624,9.962273107910155,0.0,-0.3662109375,0.06103515625
1781667577.293747,0.24899697265624998,-0.00718260498046875,9.937133990478515,0.18310546875,-0.67138671875,0.1220703125
1781667577.297747,0.2442085693359375,-0.00239420166015625,9.949104998779296,0.0,-0.48828125,0.06103515625
1781667577.3017468,0.25258827514648435,-0.010773907470703125,9.94671079711914,0.06103515625,-0.54931640625,0.18310546875
1781667577.3057468,0.239420166015625,-0.008379705810546874,9.913191973876952,0.18310546875,-0.67138671875,0.06103515625
1781667577.3097467,0.2537853759765625,-0.0047884033203125,9.91438907470703,0.1220703125,-0.3662109375,0.1220703125
1781667577.3137467,0.27174188842773433,-0.0047884033203125,9.931148486328125,0.1220703125,-0.18310546875,0.0
1781667577.3177466,0.2741360900878906,-0.017956512451171875,9.906009368896484,0.30517578125,-0.6103515625,0.06103515625
1781667577.3217466,0.29089550170898437,-0.025139117431640625,9.932345587158203,0.06103515625,-0.67138671875,0.1220703125
1781667577.3257465,0.2825157958984375,-0.009576806640625,9.964667309570311,0.06103515625,-0.54931640625,0.244140625
1781667577.3297465,0.2861070983886719,-0.034715924072265626,9.934739788818359,0.06103515625,-0.6103515625,0.30517578125
1781667577.3337464,0.2741360900878906,-0.06823474731445311,9.928754284667969,-0.06103515625,-0.732421875,0.30517578125
1781667577.3377464,0.27892449340820313,-0.031124621582031248,9.944316595458984,0.0,-0.48828125,0.18310546875
1781667577.3417463,0.22505495605468748,-0.009576806640625,9.907206469726562,0.1220703125,-0.3662109375,0.0
1781667577.3457463,0.23822306518554687,-0.04548983154296875,9.897629663085937,0.244140625,-0.48828125,0.0
1781667577.3497462,0.25737667846679685,-0.017956512451171875,9.91438907470703,0.1220703125,-0.30517578125,0.18310546875
1781667577.3537462,0.2657563842773437,-0.0143652099609375,9.938331091308592,0.244140625,-0.3662109375,-0.06103515625
1781667577.3577461,0.28969840087890625,-0.022744915771484374,9.91438907470703,0.30517578125,-0.3662109375,0.06103515625
1781667577.361746,0.2693476867675781,-0.027533319091796873,9.923965881347655,0.3662109375,-0.42724609375,0.18310546875
1781667577.365746,0.258573779296875,0.0,9.931148486328125,0.06103515625,-0.3662109375,0.18310546875
1781667577.369746,0.2753331909179687,-0.03591302490234375,9.931148486328125,0.30517578125,-0.3662109375,0.1220703125
1781667577.373746,0.28490999755859375,-0.028730419921875,9.934739788818359,0.0,-0.1220703125,0.0
1781667577.3777459,0.239420166015625,-0.03232172241210937,9.91438907470703,0.06103515625,0.0,0.06103515625
1781667577.3817458,0.2501940734863281,-0.0143652099609375,9.90241806640625,0.1220703125,-0.06103515625,0.06103515625
1781667577.3857458,0.2597708801269531,0.016759411621093748,9.91558617553711,0.30517578125,0.06103515625,0.06103515625
1781667577.3897457,0.24301146850585936,-0.0047884033203125,9.941922393798828,0.18310546875,0.0,0.0
1781667577.3937457,0.28012159423828126,-0.020350714111328123,9.945513696289062,0.1220703125,-0.1220703125,0.06103515625
1781667577.3977456,0.28012159423828126,-0.028730419921875,9.937133990478515,0.18310546875,-0.3662109375,0.18310546875
1781667577.4017456,0.24301146850585936,-0.040701428222656245,9.947907897949218,0.244140625,-0.48828125,0.18310546875
1781667577.4057455,0.23223756103515625,-0.020350714111328123,9.932345587158203,0.18310546875,-0.3662109375,0.18310546875
1781667577.4097455,0.229843359375,-0.034715924072265626,9.93952819213867,0.3662109375,-0.244140625,-0.06103515625
1781667577.4137454,0.2214636535644531,0.00718260498046875,9.94072529296875,0.3662109375,-0.3662109375,0.18310546875
1781667577.4177454,0.24660277099609373,-0.013168109130859374,9.923965881347655,0.30517578125,-0.30517578125,0.0
