timestamp,acc_x,acc_y,acc_z,gyro_x,gyro_y,gyro_z
1781494018.7595952,0.33399113159179683,-2.492363928222656,9.578003741455078,-11.29150390625,3.72314453125,9.6435546875
1781494018.763584,0.32441432495117184,-2.522291448974609,9.528922607421874,-11.474609375,4.0283203125,10.68115234375
1781494018.7674873,0.28969840087890625,-2.5258827514648434,9.504980590820312,-12.0849609375,4.5166015625,12.02392578125
1781494018.7714872,0.2537853759765625,-2.539050860595703,9.510966094970703,-12.26806640625,4.7607421875,13.12255859375
1781494018.7754872,0.28969840087890625,-2.6384102294921874,9.516951599121093,-12.6953125,4.82177734375,14.34326171875
1781494018.7794871,0.26216508178710934,-2.5737667846679684,9.537302313232422,-12.8173828125,5.2490234375,15.0146484375
1781494018.783487,0.20829554443359374,-2.607285607910156,9.570821136474608,-13.24462890625,5.79833984375,16.11328125
1781494018.787487,0.1975216369628906,-2.634818927001953,9.5384994140625,-13.00048828125,5.55419921875,17.08984375
1781494018.791487,0.18315642700195311,-2.634818927001953,9.533711010742186,-13.18359375,5.55419921875,17.7001953125
1781494018.795487,0.14006079711914063,-2.6515783386230467,9.566032733154296,-13.18359375,5.859375,18.5546875
1781494018.7994869,0.15442600708007811,-2.6946739685058594,9.558850128173827,-12.75634765625,5.67626953125,19.22607421875
1781494018.8034868,0.15322890625,-2.7665000183105466,9.583989245605467,-12.451171875,5.18798828125,19.59228515625
1781494018.8074868,0.17357962036132812,-2.81558115234375,9.611522564697266,-11.65771484375,4.638671875,20.01953125
1781494018.8114867,0.20709844360351562,-2.876633294677734,9.618705169677733,-10.43701171875,3.60107421875,20.5078125
1781494018.8154867,0.22744915771484372,-2.916137622070312,9.616310968017578,-8.9111328125,3.173828125,20.6298828125
1781494018.8194866,0.20231004028320312,-2.9795839660644527,9.618705169677733,-7.6904296875,2.3193359375,20.44677734375
1781494018.8234866,0.2346317626953125,-3.0166940917968748,9.63307037963867,-6.16455078125,1.64794921875,20.08056640625
1781494018.8274865,0.2154781494140625,-3.0789433349609374,9.600748657226562,-4.2724609375,1.5869140625,19.6533203125
1781494018.8314865,0.22026655273437498,-3.0921114440917967,9.60194575805664,-2.197265625,1.3427734375,19.10400390625
1781494018.8354864,0.2741360900878906,-3.1124621582031247,9.631873278808593,-0.18310546875,1.220703125,18.24951171875
1781494018.8394864,0.26336218261718747,-3.116053460693359,9.64025298461914,2.74658203125,1.46484375,16.7236328125
1781494018.8434863,0.32441432495117184,-3.1794998046874996,9.495403784179686,6.40869140625,1.0986328125,15.380859375
1781494018.8474863,0.3387795349121094,-3.1974563171386716,9.564835632324218,9.27734375,1.5869140625,14.22119140625
1781494018.8514862,0.4261678955078125,-3.2728736694335936,9.664195001220703,10.3759765625,1.89208984375,12.63427734375
1781494018.8554862,0.5207388610839844,-3.228580938720703,9.719261639404296,11.04736328125,1.89208984375,10.92529296875
1781494018.859486,0.5303156677246094,-3.2225954345703123,9.822212310791015,12.26806640625,1.89208984375,9.1552734375
1781494018.863486,0.5698199951171875,-3.1399954772949217,9.785102185058593,14.404296875,1.8310546875,7.14111328125
1781494018.867486,0.5063736511230469,-3.1459809814453124,9.807847100830077,15.625,2.50244140625,5.06591796875
1781494018.871486,0.5303156677246094,-3.2441432495117186,9.78031378173828,15.80810546875,2.01416015625,3.0517578125
1781494018.875486,0.5686228942871093,-3.2644939636230466,9.679757312011718,15.869140625,2.13623046875,1.0986328125
1781494018.8794858,0.5339069702148437,-3.21780703125,9.78031378173828,15.2587890625,3.41796875,-0.9765625
1781494018.8834858,0.44532150878906246,-3.1447838806152344,9.485826977539062,15.2587890625,3.96728515625,-2.62451171875
1781494018.8874857,0.3854664672851562,-3.1651345947265623,9.52533130493164,14.09912109375,4.82177734375,-4.5166015625
1781494018.8914857,0.4572925170898437,-3.132812872314453,9.368511096191405,14.16015625,4.39453125,-6.65283203125
1781494018.8954856,0.34715924072265625,-3.0334535034179684,9.502586389160156,13.61083984375,6.103515625,-8.23974609375
1781494018.8994856,0.296881005859375,-3.029862200927734,9.406818322753905,13.3056640625,7.38525390625,-10.1318359375
1781494018.9034855,0.2885013000488281,-2.922123126220703,9.3852705078125,13.18359375,7.99560546875,-12.14599609375
1781494018.9074855,0.22505495605468748,-2.874239093017578,9.248801013183593,13.0615234375,8.6669921875,-13.5498046875
1781494018.9114854,0.201112939453125,-2.8024130432128906,9.260772021484375,12.51220703125,9.82666015625,-14.892578125
1781494018.9154854,0.17357962036132812,-2.8383260681152342,9.202114080810546,11.77978515625,10.80322265625,-16.357421875
1781494018.9194853,0.20709844360351562,-2.8622680847167965,9.209296685791015,11.04736328125,11.3525390625,-17.15087890625
1781494018.9234853,0.22266075439453123,-2.816778253173828,9.221267694091797,9.8876953125,11.8408203125,-18.24951171875
1781494018.9274852,0.20709844360351562,-2.788047833251953,9.241618408203124,8.9111328125,12.6953125,-18.85986328125
1781494018.9314852,0.19033903198242186,-2.750937707519531,9.204508282470703,8.1787109375,13.0615234375,-19.1650390625
1781494018.9354851,0.1149216796875,-2.6791116577148437,9.191340173339842,8.11767578125,13.24462890625,-19.34814453125
1781494018.939485,0.05746083984375,-2.583343591308594,9.210493786621093,7.9345703125,13.36669921875,-19.53125
1781494018.943485,0.05027823486328125,-2.5474305664062498,9.200916979980468,7.99560546875,13.48876953125,-19.53125
1781494018.947485,0.06584054565429687,-2.5234885498046875,9.242815509033203,8.30078125,12.8173828125,-18.98193359375
1781494018.951485,0.08738836059570312,-2.450465399169922,9.279925634765624,8.30078125,11.29150390625,-18.310546875
1781494018.9554849,0.011971008300781249,-2.407369769287109,9.406818322753905,8.1787109375,10.31494140625,-17.63916015625
1781494018.9594848,-0.04548983154296875,-2.4660277099609376,9.36013139038086,7.62939453125,9.27734375,-16.7236328125
1781494018.9634848,-0.1005564697265625,-2.4349030883789062,9.305064752197264,7.01904296875,8.4228515625,-15.869140625
1781494018.9674847,-0.20709844360351562,-2.375048046875,9.279925634765624,6.103515625,8.9111328125,-15.19775390625
1781494018.9714847,-0.24061726684570311,-2.346317626953125,9.273940130615234,5.4931640625,8.97216796875,-14.22119140625
1781494018.9754846,-0.23702596435546874,-2.3116017028808593,9.260772021484375,5.92041015625,8.30078125,-13.36669921875
1781494018.9794846,-0.25139117431640623,-2.252943762207031,9.315838659667968,6.103515625,7.32421875,-12.02392578125
1781494018.9834845,-0.24779987182617186,-2.1918916198730467,9.439140045166015,6.53076171875,5.615234375,-10.8642578125
1781494018.9874845,-0.2501940734863281,-2.2086510314941403,9.457096557617186,6.4697265625,4.69970703125,-9.3994140625
1781494018.9914844,-0.239420166015625,-2.252943762207031,9.488221179199218,6.7138671875,2.25830078125,-8.30078125
1781494018.9954844,-0.26216508178710934,-2.269703173828125,9.519345800781249,6.89697265625,0.79345703125,-6.591796875
1781494018.9994843,-0.28969840087890625,-2.2469582580566403,9.555258825683593,6.7138671875,0.732421875,-5.615234375
1781494019.0034842,-0.2561795776367187,-2.2541408630371094,9.568426934814452,6.77490234375,-0.67138671875,-4.45556640625
1781494019.0074842,-0.21428104858398436,-2.2397756530761717,9.592368951416015,6.9580078125,-2.0751953125,-3.47900390625
1781494019.0114841,-0.181959326171875,-2.1631611999511717,9.65940659790039,7.080078125,-3.41796875,-2.3193359375
1781494019.015484,-0.12330138549804687,-2.194285821533203,9.706093530273437,6.77490234375,-4.5166015625,-1.40380859375
1781494019.019484,-0.04548983154296875,-2.261323468017578,9.690531219482422,6.65283203125,-6.16455078125,-0.54931640625
1781494019.023484,-0.028730419921875,-2.2457611572265623,9.673771807861328,6.2255859375,-7.568359375,0.244140625
1781494019.027484,-0.005985504150390624,-2.231395947265625,9.680954412841796,5.79833984375,-8.4228515625,0.6103515625
1781494019.031484,0.00239420166015625,-2.2457611572265623,9.694122521972655,5.31005859375,-9.033203125,1.15966796875
1781494019.0354838,0.029927520751953124,-2.2948422912597657,9.65342109375,4.8828125,-9.46044921875,1.64794921875
1781494019.0394838,0.03591302490234375,-2.2972364929199216,9.689334118652344,4.150390625,-9.70458984375,1.89208984375
1781494019.0434837,0.03950432739257812,-2.3235727111816407,9.710881933593749,3.47900390625,-9.58251953125,2.01416015625
1781494019.0474837,0.08020575561523437,-2.3882161560058592,9.677363110351562,3.11279296875,-9.521484375,2.13623046875
1781494019.0514836,0.10654197387695312,-2.4576480041503905,9.537302313232422,2.99072265625,-9.8876953125,2.01416015625
1781494019.0554836,0.1292868896484375,-2.389413256835937,9.558850128173827,2.38037109375,-9.8876953125,1.89208984375
1781494019.0594835,0.1580173095703125,-2.395398760986328,9.585186346435547,2.0751953125,-9.521484375,1.77001953125
1781494019.0634835,0.18914193115234373,-2.3882161560058592,9.497797985839844,2.197265625,-9.521484375,1.708984375
1781494019.0674834,0.17956512451171874,-2.414552374267578,9.588777648925781,2.197265625,-9.6435546875,1.708984375
1781494019.0714834,0.18555062866210936,-2.393004559326172,9.73602105102539,2.62451171875,-9.94873046875,1.28173828125
1781494019.0754833,0.22266075439453123,-2.4564509033203126,9.848548529052733,3.2958984375,-10.3759765625,1.0986328125
1781494019.0794833,0.2537853759765625,-2.499546533203125,9.883264453125,3.72314453125,-11.29150390625,0.6103515625
1781494019.0834832,0.2561795776367187,-2.521094348144531,9.947907897949218,3.5400390625,-10.6201171875,0.42724609375
1781494019.0874832,0.316034619140625,-2.546233465576172,9.892841259765625,3.35693359375,-10.498046875,-0.06103515625
1781494019.091483,0.316034619140625,-2.5845406921386718,9.810241302490233,3.35693359375,-10.498046875,-0.732421875
1781494019.095483,0.3327940307617187,-2.578555187988281,9.745597857666015,3.35693359375,-10.68115234375,-1.28173828125
1781494019.099483,0.3603273498535156,-2.612074011230469,9.714473236083984,3.173828125,-10.19287109375,-2.0751953125
1781494019.103483,0.37708676147460934,-2.598905902099609,9.657012396240233,2.685546875,-9.58251953125,-2.5634765625
1781494019.107483,0.43454760131835934,-2.606088507080078,9.606734161376952,3.11279296875,-9.6435546875,-3.0517578125
1781494019.1114829,0.45010991210937495,-2.5905261962890624,9.623493572998047,3.47900390625,-9.09423828125,-3.60107421875
1781494019.1154828,0.46806642456054687,-2.568978381347656,9.65342109375,3.11279296875,-8.30078125,-3.90625
1781494019.1194828,0.4991910461425781,-2.5917232971191404,9.623493572998047,3.47900390625,-7.87353515625,-4.69970703125
1781494019.1234827,0.46208092041015625,-2.6048914062499997,9.612719665527344,3.60107421875,-7.38525390625,-5.2490234375
1781494019.1274827,0.4333505004882812,-2.625242120361328,9.660603698730467,3.47900390625,-6.53076171875,-5.67626953125
1781494019.1314826,0.42497079467773435,-2.6001030029296874,9.662997900390625,3.662109375,-5.615234375,-6.103515625
1781494019.1354825,0.40581718139648437,-2.6420015319824217,9.618705169677733,4.0283203125,-4.69970703125,-6.7138671875
1781494019.1394825,0.4082113830566406,-2.598905902099609,9.593566052246093,4.08935546875,-4.0283203125,-7.14111328125
1781494019.1434824,0.42377369384765623,-2.5725696838378904,9.618705169677733,4.0283203125,-2.8076171875,-7.6904296875
1781494019.1474824,0.4321533996582031,-2.5641899780273434,9.63307037963867,4.5166015625,-2.13623046875,-7.9345703125
1781494019.1514823,0.4740519287109375,-2.536656658935547,9.635464581298828,4.638671875,-1.52587890625,-8.36181640625
1781494019.1554823,0.48243163452148435,-2.480392919921875,9.707290631103515,5.06591796875,-0.67138671875,-8.544921875
1781494019.1594822,0.48123453369140623,-2.4289175842285156,9.751583361816406,5.2490234375,0.18310546875,-8.544921875
1781494019.1634822,0.5602431884765625,-2.39420166015625,9.79348189086914,5.4931640625,0.48828125,-8.60595703125
1781494019.1674821,0.6069301208496093,-2.3690625427246093,9.829394915771484,5.67626953125,0.67138671875,-8.48388671875
1781494019.171482,0.5566518859863281,-2.3044190979003907,9.858125335693359,5.67626953125,1.220703125,-8.056640625
1781494019.175482,0.5997475158691405,-2.2828712829589843,9.866505041503906,5.7373046875,1.46484375,-7.8125
1781494019.179482,0.5997475158691405,-2.3044190979003907,9.83897172241211,6.04248046875,1.40380859375,-7.26318359375
1781494019.183482,0.5817910034179687,-2.3511060302734372,9.811438403320311,6.04248046875,1.64794921875,-7.14111328125
1781494019.1874819,0.5327098693847656,-2.3690625427246093,9.789890588378906,5.859375,1.953125,-6.53076171875
1781494019.1914818,0.5434837768554687,-2.418143676757812,9.758765966796874,5.37109375,2.62451171875,-5.859375
1781494019.1954818,0.5051765502929687,-2.4193407775878906,9.688137017822266,5.18798828125,2.8076171875,-5.37109375
1781494019.1994817,0.4381389038085937,-2.463633508300781,9.667786303710937,4.8828125,3.35693359375,-4.8828125
1781494019.2034817,0.35194764404296874,-2.4396914916992185,9.651026892089844,4.0283203125,4.2724609375,-4.5166015625
1781494019.2074816,0.3124433166503906,-2.408566870117187,9.598354455566406,3.72314453125,5.126953125,-3.7841796875
1781494019.2114816,0.277727392578125,-2.3918074584960936,9.570821136474608,3.72314453125,5.615234375,-2.99072265625
1781494019.2154815,0.229843359375,-2.309207501220703,9.593566052246093,4.0283203125,6.591796875,-2.5634765625
1781494019.2194815,0.27892449340820313,-2.2553379638671873,9.612719665527344,4.57763671875,7.4462890625,-1.89208984375
1781494019.2234814,0.27892449340820313,-2.2301988464355467,9.641450085449218,5.55419921875,7.4462890625,-0.9765625
1781494019.2274814,0.3555389465332031,-2.2278046447753903,9.708487731933593,6.16455078125,7.4462890625,-0.67138671875
1781494019.2314813,0.3950432739257812,-2.2086510314941403,9.842563024902343,6.9580078125,7.26318359375,0.0
1781494019.2354813,0.4513070129394531,-2.1930887207031247,9.873687646484374,8.1787109375,5.92041015625,0.8544921875
1781494019.2394812,0.46208092041015625,-2.1978771240234374,9.935936889648437,9.58251953125,4.150390625,1.64794921875
1781494019.2434812,0.4225765930175781,-2.1811177124023438,9.93952819213867,10.31494140625,2.44140625,2.13623046875
1781494019.247481,0.3387795349121094,-2.2254104431152344,9.882067352294921,10.43701171875,1.28173828125,2.5634765625
1781494019.251481,0.2813186950683594,-2.2589292663574216,9.80066449584961,10.80322265625,0.8544921875,3.0517578125
1781494019.255481,0.1867477294921875,-2.2685060729980466,9.797073193359374,11.29150390625,0.3662109375,3.11279296875
1781494019.259481,0.12210428466796874,-2.2397756530761717,9.801861596679688,11.77978515625,0.06103515625,2.9296875
1781494019.263481,0.105344873046875,-2.2481553588867187,9.765948571777344,12.20703125,-0.30517578125,2.74658203125
1781494019.2674809,0.10175357055664062,-2.2661118713378903,9.757568865966796,12.939453125,-0.91552734375,2.197265625
1781494019.2714808,0.08140285644531249,-2.2493524597167966,9.738415252685547,13.3056640625,-0.732421875,1.64794921875
1781494019.2754807,0.105344873046875,-2.2278046447753903,9.743203656005859,13.427734375,-0.67138671875,1.220703125
1781494019.2794807,0.13407529296874998,-2.2577321655273437,9.695319622802733,13.00048828125,-0.732421875,0.732421875
1781494019.2834806,0.14604630126953125,-2.250549560546875,9.605537060546874,12.63427734375,-0.3662109375,0.06103515625
1781494019.2874806,0.14484920043945312,-2.2182278381347653,9.554061724853515,11.65771484375,0.54931640625,-0.8544921875
1781494019.2914805,0.17357962036132812,-2.091335150146484,9.504980590820312,11.1083984375,1.220703125,-1.46484375
1781494019.2954805,0.20709844360351562,-2.0458453186035155,9.453505255126952,10.31494140625,2.25830078125,-2.38037109375
1781494019.2994804,0.2705447875976562,-2.04943662109375,9.491812481689452,9.58251953125,2.74658203125,-2.99072265625
1781494019.3034804,0.23702596435546874,-2.057816326904297,9.497797985839844,8.97216796875,3.60107421875,-3.60107421875
1781494019.3074803,0.24061726684570311,-2.0973206542968748,9.516951599121093,8.23974609375,4.45556640625,-4.0283203125
1781494019.3114803,0.2154781494140625,-2.127248175048828,9.5001921875,7.568359375,4.94384765625,-4.638671875
1781494019.3154802,0.2166752502441406,-2.133233679199219,9.513360296630859,6.77490234375,5.79833984375,-5.2490234375
1781494019.3194802,0.2059013427734375,-2.117671368408203,9.508571893310547,5.859375,6.89697265625,-5.55419921875
1781494019.3234801,0.2154781494140625,-2.138022082519531,9.483432775878907,5.31005859375,7.080078125,-6.04248046875
1781494019.32748,0.2346317626953125,-2.117671368408203,9.510966094970703,4.7607421875,7.2021484375,-5.9814453125
1781494019.33148,0.20949264526367187,-2.0757728393554684,9.519345800781249,4.2724609375,6.89697265625,-6.34765625
1781494019.33548,0.21068974609375,-2.068590234375,9.568426934814452,3.60107421875,6.28662109375,-6.4697265625
1781494019.33948,0.17118541870117188,-2.085349645996094,9.604339959716796,3.23486328125,5.37109375,-6.28662109375
1781494019.3434799,0.14484920043945312,-2.110488763427734,9.665392102050781,3.173828125,4.57763671875,-6.4697265625
1781494019.3474798,0.10295067138671875,-2.1068974609374997,9.682151513671874,2.5634765625,4.08935546875,-6.4697265625
1781494019.3514798,0.05626373901367187,-2.1128829650878904,9.701305126953125,2.01416015625,4.150390625,-6.34765625
1781494019.3554797,0.07422025146484375,-2.072181536865234,9.720458740234374,2.0751953125,3.47900390625,-6.4697265625
1781494019.3594797,0.08259995727539061,-2.060210528564453,9.777919580078125,1.8310546875,2.86865234375,-6.28662109375
1781494019.3634796,0.0718260498046875,-2.050633721923828,9.763554370117188,1.8310546875,2.38037109375,-6.28662109375
1781494019.3674796,0.1304839904785156,-2.048239520263672,9.74799205932617,1.5869140625,2.0751953125,-5.7373046875
1781494019.3714795,0.1484405029296875,-2.059013427734375,9.739612353515625,1.64794921875,0.8544921875,-5.615234375
1781494019.3754795,0.12808978881835936,-2.043451116943359,9.71686743774414,1.46484375,0.67138671875,-5.2490234375
1781494019.3794794,0.11731588134765625,-2.057816326904297,9.712079034423828,0.8544921875,0.0,-5.0048828125
1781494019.3834794,0.09217676391601562,-2.0566192260742184,9.69771382446289,1.03759765625,-0.67138671875,-4.7607421875
1781494019.3874793,0.07900865478515624,-2.0757728393554684,9.730035546875,1.40380859375,-1.0986328125,-4.21142578125
1781494019.3914793,0.0526724365234375,-2.0781670410156248,9.710881933593749,1.89208984375,-1.64794921875,-4.08935546875
1781494019.3954792,0.029927520751953124,-2.105700360107422,9.690531219482422,1.708984375,-1.46484375,-3.7841796875
1781494019.3994792,-0.005985504150390624,-2.128445275878906,9.672574707031249,1.89208984375,-1.708984375,-3.662109375
1781494019.403479,0.016759411621093748,-2.129642376708984,9.64623848876953,1.52587890625,-1.3427734375,-3.47900390625
1781494019.407479,0.009576806640625,-2.133233679199219,9.592368951416015,1.220703125,-1.0986328125,-3.5400390625
1781494019.411479,0.0383072265625,-2.1248539733886718,9.581595043945311,1.28173828125,-0.732421875,-3.35693359375
1781494019.415479,0.05746083984375,-2.1344307800292968,9.53131680908203,1.220703125,-0.6103515625,-3.2958984375
1781494019.419479,0.01915361328125,-2.2649147705078123,9.64623848876953,0.1220703125,0.0,-2.86865234375
1781494019.4234788,0.08140285644531249,-2.175132208251953,9.53131680908203,0.3662109375,-0.79345703125,-3.173828125
1781494019.4274788,0.06584054565429687,-2.117671368408203,9.619902270507811,0.3662109375,-0.244140625,-2.50244140625
1781494019.4314787,0.15442600708007811,-2.147598889160156,9.627084875488281,0.18310546875,-0.8544921875,-2.13623046875
1781494019.4354787,0.12569558715820311,-2.127248175048828,9.625887774658203,-0.1220703125,-0.8544921875,-1.8310546875
1781494019.4394786,0.14245499877929688,-2.128445275878906,9.673771807861328,-0.06103515625,-1.0986328125,-1.03759765625
1781494019.4434786,0.17597382202148437,-2.1583727966308595,9.668983404541015,-0.244140625,-1.708984375,-0.42724609375
1781494019.4474785,0.17956512451171874,-2.0745757385253905,9.707290631103515,0.18310546875,-1.77001953125,0.1220703125
1781494019.4514785,0.20949264526367187,-2.0362685119628905,9.720458740234374,0.6103515625,-2.5634765625,0.732421875
1781494019.4554784,0.23343466186523437,-2.050633721923828,9.71686743774414,1.28173828125,-3.35693359375,1.28173828125
1781494019.4594784,0.2705447875976562,-2.001552587890625,9.725247143554688,1.40380859375,-3.72314453125,2.01416015625
1781494019.4634783,0.25737667846679685,-2.0374656127929685,9.740809454345703,1.3427734375,-3.60107421875,2.5634765625
1781494019.4674783,0.2454056701660156,-2.069787335205078,9.738415252685547,1.40380859375,-3.84521484375,2.86865234375
1781494019.4714782,0.24899697265624998,-2.04943662109375,9.720458740234374,1.77001953125,-3.84521484375,3.47900390625
1781494019.4754782,0.30526071166992186,-2.059013427734375,9.753977563476562,2.01416015625,-4.45556640625,3.7841796875
1781494019.4794781,0.3028665100097656,-2.086546746826172,9.727641345214844,2.197265625,-4.39453125,4.0283203125
1781494019.483478,0.2932897033691406,-2.072181536865234,9.734823950195311,2.5634765625,-4.150390625,4.2724609375
1781494019.487478,0.3184288208007812,-2.061407629394531,9.701305126953125,2.8076171875,-4.33349609375,4.45556640625
1781494019.491478,0.316034619140625,-2.0733786376953125,9.695319622802733,2.86865234375,-3.72314453125,4.638671875
1781494019.495478,0.34237083740234375,-2.0266917053222655,9.721655841064452,2.8076171875,-3.41796875,4.5166015625
1781494019.4994779,0.3758896606445312,-2.0302830078125,9.715670336914062,2.44140625,-3.173828125,4.5166015625
1781494019.5034778,0.35194764404296874,-2.024297503662109,9.724050042724608,2.50244140625,-2.5634765625,4.150390625
1781494019.5074778,0.39145197143554683,-1.9967641845703124,9.690531219482422,2.3193359375,-2.38037109375,3.7841796875
1781494019.5114777,0.3902548706054687,-2.032677209472656,9.651026892089844,2.38037109375,-2.0751953125,3.5400390625
1781494019.5154777,0.36391865234375,-2.04943662109375,9.605537060546874,2.01416015625,-1.28173828125,2.9296875
1781494019.5194776,0.3758896606445312,-2.0925322509765625,9.55645592651367,2.01416015625,-1.15966796875,2.685546875
1781494019.5234776,0.32920272827148434,-2.096123553466797,9.501389288330078,1.8310546875,-0.3662109375,1.8310546875
1781494019.5274775,0.2932897033691406,-2.118868469238281,9.455899456787108,2.01416015625,-0.06103515625,1.40380859375
1781494019.5314775,0.25258827514648435,-2.1356278808593747,9.425971936035156,2.01416015625,0.0,0.79345703125
1781494019.5354774,0.1927332336425781,-2.120065570068359,9.399635717773437,2.0751953125,0.42724609375,0.3662109375
1781494019.5394773,0.21906945190429686,-2.105700360107422,9.363722692871093,2.0751953125,0.6103515625,-0.06103515625
1781494019.5434773,0.19512743530273435,-2.1248539733886718,9.375693701171874,1.89208984375,0.30517578125,-0.67138671875
1781494019.5474772,0.2262520568847656,-2.069787335205078,9.421183532714844,1.52587890625,0.6103515625,-1.220703125
1781494019.5514772,0.1879448303222656,-2.038662713623047,9.459490759277344,1.3427734375,0.48828125,-1.28173828125
1781494019.5554771,0.22505495605468748,-1.9991583862304687,9.540893615722656,0.79345703125,-0.06103515625,-1.77001953125
1781494019.559477,0.2561795776367187,-1.9871873779296874,9.578003741455078,0.732421875,-0.67138671875,-1.77001953125
1781494019.563477,0.2657563842773437,-2.0266917053222655,9.628281976318359,0.54931640625,-1.3427734375,-2.01416015625
1781494019.567477,0.21308394775390624,-2.1021090576171875,9.695319622802733,-0.244140625,-1.953125,-2.01416015625
1781494019.571477,0.17597382202148437,-2.1583727966308595,9.574412438964844,-0.91552734375,-2.25830078125,-2.197265625
1781494019.575477,0.22744915771484372,-2.0554221252441405,9.60793126220703,-1.0986328125,-2.99072265625,-2.13623046875
1781494019.5794768,0.26336218261718747,-1.954865655517578,9.713276135253906,-0.732421875,-4.21142578125,-2.44140625
1781494019.5834768,0.296881005859375,-1.945288848876953,9.810241302490233,-0.6103515625,-5.06591796875,-2.25830078125
1781494019.5874767,0.3028665100097656,-2.042254016113281,9.860519537353515,-0.732421875,-5.4931640625,-2.44140625
1781494019.5914767,0.31004911499023435,-2.0542250244140625,9.849745629882811,-1.40380859375,-6.16455078125,-2.44140625
1781494019.5954766,0.3112462158203125,-2.081758343505859,9.822212310791015,-1.953125,-6.65283203125,-2.44140625
1781494019.5994766,0.3327940307617187,-2.100911956787109,9.815029705810547,-2.8076171875,-6.9580078125,-2.62451171875
1781494019.6034765,0.33039982910156246,-2.110488763427734,9.739612353515625,-2.5634765625,-6.77490234375,-2.685546875
1781494019.6074765,0.3112462158203125,-2.1116858642578125,9.618705169677733,-2.197265625,-7.4462890625,-2.8076171875
1781494019.6114764,0.296881005859375,-2.127248175048828,9.636661682128906,-2.25830078125,-6.65283203125,-2.5634765625
1781494019.6154764,0.2765302917480469,-2.139219183349609,9.643844287109374,-2.685546875,-5.7373046875,-2.99072265625
1781494019.6194763,0.32561142578124996,-2.1775264099121094,9.56363853149414,-2.9296875,-5.67626953125,-3.0517578125
1781494019.6234763,0.33399113159179683,-2.1487959899902345,9.54448491821289,-2.9296875,-4.94384765625,-3.23486328125
1781494019.6274762,0.33039982910156246,-2.1344307800292968,9.537302313232422,-2.8076171875,-4.150390625,-3.173828125
1781494019.6314762,0.3950432739257812,-2.1607669982910154,9.542090716552734,-2.5634765625,-4.150390625,-3.173828125
1781494019.635476,0.37229835815429685,-2.138022082519531,9.551667523193359,-2.8076171875,-4.21142578125,-3.11279296875
1781494019.639476,0.3962403747558593,-2.1212626708984375,9.55645592651367,-3.0517578125,-4.08935546875,-3.0517578125
1781494019.643476,0.39743747558593745,-2.1212626708984375,9.580397943115234,-2.99072265625,-3.5400390625,-2.99072265625
1781494019.647476,0.37708676147460934,-2.098517755126953,9.575609539794922,-3.11279296875,-3.5400390625,-2.44140625
1781494019.651476,0.3699041564941406,-2.1021090576171875,9.622296472167967,-3.11279296875,-3.72314453125,-2.38037109375
1781494019.6554759,0.3555389465332031,-2.062604730224609,9.725247143554688,-3.47900390625,-3.7841796875,-2.25830078125
1781494019.6594758,0.3687070556640625,-2.0661960327148434,9.752780462646484,-3.5400390625,-3.7841796875,-1.8310546875
1781494019.6634758,0.41898529052734373,-2.0973206542968748,9.751583361816406,-3.41796875,-4.33349609375,-1.708984375
1781494019.6674757,0.41060558471679687,-2.104503259277344,9.810241302490233,-3.2958984375,-4.21142578125,-1.40380859375
1781494019.6714756,0.4465186096191406,-2.1679496032714844,9.776722479248047,-3.23486328125,-4.69970703125,-1.28173828125
1781494019.6754756,0.4752490295410156,-2.2266075439453124,9.756371765136718,-2.86865234375,-5.126953125,-1.3427734375
1781494019.6794755,0.4644751220703125,-2.2457611572265623,9.765948571777344,-2.50244140625,-5.18798828125,-1.15966796875
1781494019.6834755,0.45489831542968745,-2.252943762207031,9.791087689208984,-2.44140625,-5.2490234375,-1.0986328125
1781494019.6874754,0.4848258361816406,-2.2864625854492187,9.776722479248047,-1.8310546875,-5.31005859375,-1.220703125
1781494019.6914754,0.49200844116210934,-2.2924480895996093,9.782707983398437,-1.5869140625,-5.2490234375,-1.220703125
1781494019.6954753,0.5398924743652344,-2.2481553588867187,9.823409411621093,-1.64794921875,-5.06591796875,-1.15966796875
1781494019.6994753,0.5386953735351562,-2.2601263671875,9.798270294189452,-1.64794921875,-4.94384765625,-1.28173828125
1781494019.7034752,0.5398924743652344,-2.2756886779785157,9.758765966796874,-1.52587890625,-4.57763671875,-1.3427734375
1781494019.7074752,0.5686228942871093,-2.2972364929199216,9.734823950195311,-1.28173828125,-4.21142578125,-1.28173828125
1781494019.7114751,0.5614402893066406,-2.3139959045410157,9.739612353515625,-1.28173828125,-3.96728515625,-1.40380859375
1781494019.715475,0.5793968017578125,-2.3151930053710936,9.725247143554688,-1.220703125,-3.41796875,-1.3427734375
1781494019.719475,0.5901707092285156,-2.288856787109375,9.739612353515625,-0.91552734375,-3.11279296875,-1.64794921875
1781494019.723475,0.5889736083984375,-2.2685060729980466,9.759963067626952,-1.0986328125,-2.8076171875,-1.64794921875
1781494019.727475,0.603338818359375,-2.2637176696777344,9.77432827758789,-0.91552734375,-2.38037109375,-1.52587890625
1781494019.7314749,0.6272808349609375,-2.2685060729980466,9.78031378173828,-0.6103515625,-2.0751953125,-1.52587890625
1781494019.7354748,0.6189011291503906,-2.2673089721679687,9.756371765136718,-0.30517578125,-1.77001953125,-1.5869140625
1781494019.7394748,0.6380547424316406,-2.233790148925781,9.76116016845703,0.06103515625,-1.64794921875,-1.8310546875
1781494019.7434747,0.6344634399414062,-2.2469582580566403,9.767145672607422,0.3662109375,-1.40380859375,-1.708984375
1781494019.7474747,0.6380547424316406,-2.233790148925781,9.749189160156249,0.6103515625,-1.220703125,-1.953125
1781494019.7514746,0.6368576416015624,-2.2589292663574216,9.712079034423828,0.8544921875,-0.6103515625,-1.953125
1781494019.7554746,0.6248866333007812,-2.2361843505859373,9.730035546875,1.28173828125,-0.30517578125,-1.89208984375
1781494019.7594745,0.6153098266601562,-2.2565350646972653,9.71686743774414,1.5869140625,0.1220703125,-2.197265625
1781494019.7634745,0.604535919189453,-2.2493524597167966,9.67856021118164,1.8310546875,0.3662109375,-2.50244140625
1781494019.7674744,0.5781997009277343,-2.2254104431152344,9.674968908691406,2.01416015625,1.15966796875,-2.685546875
1781494019.7714744,0.5602431884765625,-2.261323468017578,9.630676177978515,2.01416015625,1.15966796875,-2.74658203125
1781494019.7754743,0.5339069702148437,-2.261323468017578,9.627084875488281,2.197265625,1.77001953125,-2.99072265625
1781494019.7794743,0.4908113403320312,-2.2780828796386716,9.635464581298828,2.13623046875,2.01416015625,-2.99072265625
1781494019.7834742,0.51714755859375,-2.2397756530761717,9.631873278808593,1.953125,2.197265625,-3.11279296875
1781494019.7874742,0.5003881469726562,-2.2349872497558594,9.662997900390625,2.0751953125,2.8076171875,-2.99072265625
1781494019.791474,0.49320554199218747,-2.2349872497558594,9.664195001220703,1.89208984375,3.0517578125,-3.2958984375
1781494019.795474,0.5243301635742187,-2.2385785522460937,9.683348614501952,1.89208984375,3.11279296875,-3.47900390625
1781494019.799474,0.5159504577636719,-2.269703173828125,9.698910925292969,1.8310546875,3.35693359375,-3.11279296875
1781494019.803474,0.5159504577636719,-2.2349872497558594,9.712079034423828,1.40380859375,3.41796875,-2.5634765625
1781494019.807474,0.507570751953125,-2.1894974182128903,9.74799205932617,1.46484375,3.60107421875,-2.50244140625
1781494019.8114738,0.5446808776855468,-2.1727380065917967,9.74799205932617,1.5869140625,3.72314453125,-2.0751953125
1781494019.8154738,0.5494692810058593,-2.1404162841796874,9.78629928588867,1.89208984375,3.7841796875,-1.52587890625
1781494019.8194737,0.5434837768554687,-2.123656872558594,9.792284790039062,1.89208984375,3.662109375,-0.79345703125
1781494019.8234737,0.5159504577636719,-2.099714855957031,9.80066449584961,2.01416015625,3.7841796875,-0.54931640625
1781494019.8274736,0.48123453369140623,-2.091335150146484,9.787496386718749,2.44140625,3.84521484375,-0.06103515625
1781494019.8314736,0.49320554199218747,-2.080561242675781,9.781510882568359,2.8076171875,3.84521484375,0.42724609375
1781494019.8354735,0.4860229370117187,-2.088940948486328,9.76116016845703,2.99072265625,3.72314453125,1.03759765625
1781494019.8394735,0.4752490295410156,-2.072181536865234,9.74200655517578,3.173828125,4.150390625,1.40380859375
1781494019.8434734,0.4848258361816406,-2.123656872558594,9.73602105102539,3.0517578125,4.45556640625,1.77001953125
1781494019.8474734,0.4896142395019531,-2.1416133850097654,9.720458740234374,2.99072265625,4.82177734375,2.0751953125
1781494019.8514733,0.4537012145996093,-2.155978594970703,9.694122521972655,2.99072265625,5.0048828125,2.44140625
1781494019.8554733,0.4225765930175781,-2.1883003173828124,9.665392102050781,2.86865234375,5.31005859375,2.74658203125
1781494019.8594732,0.4213794921875,-2.205059729003906,9.639055883789062,2.50244140625,5.79833984375,2.99072265625
1781494019.8634732,0.3842693664550781,-2.2062568298339844,9.610325463867188,2.38037109375,6.34765625,2.685546875
1781494019.8674731,0.3806780639648437,-2.2553379638671873,9.643844287109374,1.953125,6.53076171875,3.0517578125
1781494019.871473,0.4070142822265625,-2.2194249389648437,9.698910925292969,1.953125,6.89697265625,3.5400390625
1781494019.875473,0.4165910888671875,-2.2266075439453124,9.727641345214844,1.953125,6.89697265625,3.72314453125
1781494019.879473,0.39743747558593745,-2.214636535644531,9.712079034423828,1.89208984375,7.01904296875,4.0283203125
1781494019.883473,0.4381389038085937,-2.2206220397949217,9.690531219482422,1.64794921875,6.89697265625,4.33349609375
1781494019.8874729,0.4369418029785156,-2.2014684265136717,9.673771807861328,1.8310546875,7.01904296875,4.82177734375
1781494019.8914728,0.4165910888671875,-2.2074539306640624,9.680954412841796,2.13623046875,6.9580078125,5.18798828125
1781494019.8954728,0.4417302062988281,-2.213439434814453,9.655815295410155,2.0751953125,7.14111328125,5.67626953125
1781494019.8994727,0.45010991210937495,-2.1894974182128903,9.628281976318359,2.44140625,7.01904296875,5.67626953125
1781494019.9034727,0.43454760131835934,-2.1535843933105467,9.630676177978515,2.685546875,7.2021484375,6.40869140625
1781494019.9074726,0.3962403747558593,-2.114080065917969,9.660603698730467,2.50244140625,7.6904296875,6.65283203125
1781494019.91145,0.36272155151367186,-2.127248175048828,9.654618194580078,2.50244140625,7.87353515625,6.7138671875
1781494019.9154499,0.3315969299316406,-2.100911956787109,9.613916766357422,2.9296875,8.1787109375,6.77490234375
1781494019.9194498,0.29448680419921874,-2.094926452636719,9.600748657226562,2.99072265625,8.544921875,7.14111328125
1781494019.9234498,0.2645592834472656,-2.1248539733886718,9.59476315307617,2.8076171875,9.21630859375,7.2021484375
1781494019.9274497,0.239420166015625,-2.157175695800781,9.566032733154296,2.74658203125,9.70458984375,7.26318359375
1781494019.9314497,0.19991583862304688,-2.1128829650878904,9.516951599121093,2.38037109375,10.009765625,7.26318359375
1781494019.9354496,0.17836802368164062,-2.1116858642578125,9.516951599121093,2.8076171875,10.1318359375,7.26318359375
1781494019.9394495,0.1149216796875,-2.147598889160156,9.514557397460937,2.9296875,10.3759765625,7.2021484375
1781494019.9434495,0.040701428222656245,-2.1308394775390624,9.490615380859374,3.2958984375,10.07080078125,7.26318359375
1781494019.9474494,0.00718260498046875,-2.1152771667480468,9.495403784179686,3.60107421875,9.765625,7.080078125
1781494019.9514494,-0.05027823486328125,-2.133233679199219,9.555258825683593,3.72314453125,9.8876953125,6.9580078125
1781494019.9554493,-0.055066638183593745,-2.129642376708984,9.585186346435547,3.60107421875,9.58251953125,6.65283203125
1781494019.9594493,-0.03591302490234375,-2.129642376708984,9.641450085449218,3.90625,8.72802734375,6.7138671875
1781494019.9634492,-0.031124621582031248,-2.0841525451660154,9.690531219482422,3.5400390625,7.9345703125,6.89697265625
1781494019.9674492,-0.02633621826171875,-2.042254016113281,9.776722479248047,3.47900390625,6.89697265625,7.01904296875
1781494019.9714491,0.0,-2.051830822753906,9.788693487548828,3.41796875,5.92041015625,7.14111328125
1781494019.975449,-0.020350714111328123,-1.9847931762695312,9.809044201660155,3.0517578125,4.69970703125,7.26318359375
1781494019.979449,-0.00718260498046875,-1.9871873779296874,9.843760125732421,2.8076171875,4.2724609375,7.62939453125
1781494019.983449,-0.0143652099609375,-1.9776105712890624,9.834183319091796,2.01416015625,3.84521484375,7.99560546875
1781494019.987449,0.00239420166015625,-1.954865655517578,9.816226806640625,1.64794921875,3.173828125,8.056640625
1781494019.9914489,0.005985504150390624,-1.944091748046875,9.832986218261718,1.64794921875,2.8076171875,8.11767578125
1781494019.9954488,0.06703764648437499,-1.9596540588378906,9.859322436523437,1.03759765625,2.5634765625,8.1787109375
1781494019.9994488,0.03232172241210937,-1.9668366638183592,9.816226806640625,1.28173828125,2.197265625,8.23974609375
1781494020.0034487,0.05386953735351562,-2.024297503662109,9.785102185058593,0.91552734375,1.77001953125,8.4228515625
1781494020.0074487,0.03950432739257812,-2.0087351928710935,9.788693487548828,0.54931640625,1.64794921875,8.48388671875
1781494020.0114486,0.0430956298828125,-2.0374656127929685,9.775525378417969,0.30517578125,1.953125,8.23974609375
1781494020.0154486,0.0526724365234375,-2.0350714111328125,9.702502227783203,-0.1220703125,1.64794921875,8.60595703125
1781494020.0194485,0.031124621582031248,-2.0458453186035155,9.666589202880859,0.06103515625,1.64794921875,8.60595703125
1781494020.0234485,0.0383072265625,-2.019509100341797,9.673771807861328,-0.30517578125,1.8310546875,8.1787109375
1781494020.0274484,0.040701428222656245,-2.0661960327148434,9.658209497070311,-0.3662109375,1.953125,8.30078125
1781494020.0314484,0.09816226806640624,-2.0925322509765625,9.647435589599608,-0.67138671875,2.01416015625,8.056640625
1781494020.0354483,0.08499415893554688,-2.059013427734375,9.665392102050781,-0.67138671875,2.197265625,7.9345703125
1781494020.0394483,0.1005564697265625,-2.057816326904297,9.685742816162108,-0.67138671875,2.25830078125,8.056640625
1781494020.0434482,0.13766659545898435,-2.0661960327148434,9.686939916992188,-0.48828125,2.13623046875,8.056640625
1781494020.0474482,0.143652099609375,-2.038662713623047,9.679757312011718,-0.1220703125,2.01416015625,8.1787109375
1781494020.051448,0.13766659545898435,-2.0458453186035155,9.720458740234374,-0.48828125,1.77001953125,8.056640625
1781494020.055448,0.14245499877929688,-2.0446482177734375,9.708487731933593,-0.48828125,2.13623046875,8.11767578125
1781494020.059448,0.11252747802734374,-2.069787335205078,9.690531219482422,0.1220703125,2.44140625,7.87353515625
1781494020.063448,0.1304839904785156,-2.069787335205078,9.72285294189453,0.3662109375,2.01416015625,7.9345703125
1781494020.067448,0.14125789794921875,-2.100911956787109,9.745597857666015,0.91552734375,2.44140625,8.11767578125
1781494020.0714478,0.15322890625,-2.1033061584472654,9.731232647705077,1.15966796875,2.38037109375,7.75146484375
1781494020.0754478,0.16160861206054686,-2.120065570068359,9.718064538574218,1.953125,2.197265625,7.8125
1781494020.0794477,0.17238251953125,-2.096123553466797,9.727641345214844,2.5634765625,1.89208984375,7.75146484375
1781494020.0834477,0.19632453613281248,-2.1344307800292968,9.731232647705077,3.0517578125,2.0751953125,7.4462890625
1781494020.0874476,0.201112939453125,-2.1416133850097654,9.751583361816406,3.23486328125,1.953125,7.50732421875
1781494020.0914476,0.22266075439453123,-2.1535843933105467,9.764751470947266,3.72314453125,1.89208984375,7.4462890625
1781494020.0954475,0.23822306518554687,-2.1452046874999997,9.81263550415039,3.7841796875,1.8310546875,6.9580078125
1781494020.0994475,0.2442085693359375,-2.1595698974609374,9.809044201660155,4.21142578125,1.708984375,6.8359375
1781494020.1034474,0.2609679809570312,-2.1787235107421874,9.785102185058593,4.638671875,2.01416015625,6.8359375
1781494020.1074474,0.2549824768066406,-2.166752502441406,9.782707983398437,4.82177734375,2.0751953125,6.40869140625
1781494020.1114473,0.2166752502441406,-2.175132208251953,9.776722479248047,5.18798828125,2.9296875,6.4697265625
1781494020.1154473,0.16519991455078123,-2.1775264099121094,9.737218151855469,5.2490234375,3.35693359375,5.9814453125
1781494020.1194472,0.143652099609375,-2.1691467041015624,9.70369932861328,5.859375,3.60107421875,5.859375
1781494020.1234472,0.1197100830078125,-2.152387292480469,9.6917283203125,5.92041015625,4.39453125,5.615234375
1781494020.1274471,0.07781155395507812,-2.1344307800292968,9.674968908691406,6.103515625,5.06591796875,5.18798828125
1781494020.131447,0.06464344482421874,-2.1152771667480468,9.605537060546874,6.2255859375,5.37109375,5.126953125
1781494020.135447,0.009576806640625,-2.128445275878906,9.627084875488281,6.28662109375,5.615234375,4.94384765625
1781494020.139447,-0.00239420166015625,-2.1356278808593747,9.65342109375,6.103515625,6.103515625,4.7607421875
1781494020.1434374,-0.00718260498046875,-2.1021090576171875,9.643844287109374,5.67626953125,6.103515625,4.5166015625
1781494020.1474373,-0.008379705810546874,-2.062604730224609,9.64025298461914,5.92041015625,6.103515625,4.5166015625
1781494020.1514373,-0.044292730712890624,-2.043451116943359,9.652223992919922,5.37109375,6.16455078125,4.33349609375
1781494020.1554372,-0.07900865478515624,-1.9895815795898437,9.65940659790039,5.37109375,5.9814453125,4.150390625
1781494020.1594372,-0.07900865478515624,-2.021903302001953,9.668983404541015,5.18798828125,5.55419921875,4.08935546875
1781494020.1634371,-0.1005564697265625,-2.000355487060547,9.65342109375,5.06591796875,5.2490234375,3.7841796875
1781494020.167437,-0.1149216796875,-1.9764134704589842,9.673771807861328,5.18798828125,5.06591796875,3.96728515625
1781494020.1714103,-0.16280571289062498,-1.9692308654785156,9.666589202880859,4.8828125,4.94384765625,3.72314453125
1781494020.1754103,-0.1879448303222656,-1.9776105712890624,9.676166009521484,4.7607421875,4.82177734375,3.60107421875
1781494020.1794102,-0.2154781494140625,-1.946485949707031,9.672574707031249,4.7607421875,4.150390625,3.2958984375
1781494020.1834102,-0.22266075439453123,-1.8926164123535154,9.695319622802733,4.69970703125,3.84521484375,3.23486328125
1781494020.18741,-0.24660277099609373,-1.9093758239746093,9.67137760620117,4.39453125,3.2958984375,2.99072265625
1781494020.19141,-0.26695348510742184,-1.908178723144531,9.662997900390625,4.57763671875,2.74658203125,3.11279296875
1781494020.19541,-0.27892449340820313,-1.897404815673828,9.654618194580078,3.90625,2.3193359375,2.86865234375
1781494020.19941,-0.3136404174804687,-1.8914193115234375,9.660603698730467,3.5400390625,1.953125,2.8076171875
1781494020.20341,-0.3363853332519531,-1.8519149841308593,9.661800799560547,3.173828125,1.220703125,3.173828125
1781494020.2074099,-0.33399113159179683,-1.8219874633789062,9.688137017822266,2.62451171875,0.732421875,2.9296875
1781494020.211398,-0.316034619140625,-1.8279729675292968,9.6917283203125,2.50244140625,0.06103515625,3.173828125
1781494020.2153978,-0.316034619140625,-1.7956512451171873,9.689334118652344,1.8310546875,-0.79345703125,3.60107421875
1781494020.2193978,-0.3327940307617187,-1.8219874633789062,9.701305126953125,1.28173828125,-1.52587890625,3.7841796875
1781494020.2233977,-0.2980781066894531,-1.8088193542480469,9.719261639404296,0.54931640625,-2.8076171875,4.150390625
1781494020.2273977,-0.30047230834960936,-1.7980454467773437,9.731232647705077,-0.30517578125,-3.2958984375,4.69970703125
1781494020.2313976,-0.2609679809570312,-1.792059942626953,9.733626849365233,-0.8544921875,-4.33349609375,5.06591796875
1781494020.2353976,-0.25737667846679685,-1.7788918334960937,9.718064538574218,-1.708984375,-4.94384765625,5.37109375
1781494020.2393708,-0.2765302917480469,-1.8004396484374998,9.718064538574218,-2.0751953125,-5.126953125,5.615234375
1781494020.2433708,-0.23223756103515625,-1.8136077575683593,9.692925421142577,-2.685546875,-5.31005859375,5.7373046875
1781494020.2473173,-0.14604630126953125,-1.8183961608886718,9.712079034423828,-3.47900390625,-5.79833984375,5.859375
1781494020.2513173,-0.086191259765625,-1.8136077575683593,9.712079034423828,-3.662109375,-6.34765625,6.2255859375
1781494020.2553172,-0.013168109130859374,-1.820790362548828,9.739612353515625,-4.0283203125,-6.34765625,6.2255859375
1781494020.2592568,0.051475335693359374,-1.85790048828125,9.721655841064452,-4.08935546875,-6.591796875,6.4697265625
1781494020.2632568,0.07422025146484375,-1.8746598999023436,9.677363110351562,-3.60107421875,-7.2021484375,6.591796875
1781494020.2672567,0.07900865478515624,-1.8806454040527343,9.592368951416015,-3.173828125,-7.01904296875,6.16455078125
1781494020.2712567,0.11372457885742186,-1.8650830932617186,9.585186346435547,-2.8076171875,-6.103515625,6.16455078125
1781494020.2752566,0.13287819213867186,-1.879448303222656,9.55645592651367,-3.0517578125,-5.55419921875,5.92041015625
1781494020.2792566,0.1580173095703125,-1.9285294372558592,9.558850128173827,-2.9296875,-4.82177734375,5.4931640625
1781494020.2832565,0.2154781494140625,-1.9213468322753906,9.581595043945311,-2.9296875,-4.08935546875,4.82177734375
1781494020.2872565,0.258573779296875,-1.9333178405761717,9.587580548095703,-2.25830078125,-3.41796875,4.69970703125
1781494020.2912564,0.27174188842773433,-1.9381062438964842,9.616310968017578,-1.953125,-2.685546875,4.150390625
1781494020.2952564,0.3076549133300781,-1.9847931762695312,9.585186346435547,-2.13623046875,-2.50244140625,4.0283203125
1781494020.2992563,0.2920926025390625,-2.003946789550781,9.616310968017578,-2.197265625,-2.0751953125,3.5400390625
1781494020.3032563,0.28012159423828126,-1.9895815795898437,9.610325463867188,-2.01416015625,-1.03759765625,3.173828125
1781494020.3072562,0.2442085693359375,-2.0075380920410155,9.59476315307617,-1.953125,-0.91552734375,2.5634765625
1781494020.3112562,0.20709844360351562,-2.0254946044921875,9.627084875488281,-2.01416015625,-0.3662109375,2.197265625
1781494020.315256,0.1879448303222656,-1.9704279663085937,9.674968908691406,-2.197265625,0.30517578125,1.708984375
1781494020.319256,0.17477672119140625,-1.9847931762695312,9.69771382446289,-1.89208984375,0.244140625,1.28173828125
1781494020.323256,0.16160861206054686,-1.9823989746093749,9.719261639404296,-2.13623046875,0.6103515625,0.8544921875
1781494020.327256,0.17597382202148437,-2.0063409912109376,9.771934075927733,-2.25830078125,0.54931640625,0.42724609375
1781494020.331256,0.14125789794921875,-1.9680337646484374,9.816226806640625,-2.74658203125,0.79345703125,0.1220703125
1781494020.3352559,0.14724340209960937,-1.983596075439453,9.82580361328125,-3.35693359375,0.67138671875,0.0
1781494020.3392558,0.11252747802734374,-1.9967641845703124,9.78629928588867,-3.11279296875,0.79345703125,-0.6103515625
1781494020.3432558,0.07541735229492187,-2.005143890380859,9.83897172241211,-3.35693359375,0.79345703125,-0.79345703125
1781494020.3472557,0.09337386474609374,-2.062604730224609,9.860519537353515,-3.5400390625,0.6103515625,-1.220703125
1781494020.3512557,0.11013327636718749,-2.099714855957031,9.85094273071289,-3.47900390625,0.42724609375,-1.64794921875
1781494020.3552556,0.10773907470703124,-2.1224597717285154,9.882067352294921,-3.2958984375,-0.18310546875,-2.01416015625
1781494020.3592556,0.11133037719726561,-2.1416133850097654,9.892841259765625,-2.99072265625,-0.48828125,-2.197265625
1781494020.3632555,0.09816226806640624,-2.1727380065917967,9.874884747314452,-2.62451171875,-0.91552734375,-2.5634765625
1781494020.3672554,0.07900865478515624,-2.1883003173828124,9.836577520751952,-2.38037109375,-1.3427734375,-2.8076171875
1781494020.3712554,0.05027823486328125,-2.1775264099121094,9.828197814941406,-1.953125,-1.52587890625,-3.2958984375
1781494020.3752553,0.07422025146484375,-2.232593048095703,9.817423907470703,-1.46484375,-1.8310546875,-3.90625
1781494020.3792553,0.023942016601562498,-2.2266075439453124,9.765948571777344,-0.79345703125,-1.52587890625,-3.84521484375
1781494020.3832552,0.0383072265625,-2.2254104431152344,9.76235726928711,-0.244140625,-1.953125,-4.08935546875
1781494020.3872552,0.037110125732421874,-2.205059729003906,9.749189160156249,-0.1220703125,-1.89208984375,-4.45556640625
1781494020.3912551,0.062249243164062495,-2.212242333984375,9.745597857666015,0.79345703125,-2.13623046875,-4.82177734375
1781494020.395255,0.04548983154296875,-2.1727380065917967,9.715670336914062,1.0986328125,-1.953125,-4.8828125
1781494020.399255,0.037110125732421874,-2.176329309082031,9.694122521972655,1.15966796875,-2.25830078125,-5.18798828125
1781494020.403255,0.0383072265625,-2.166752502441406,9.694122521972655,1.15966796875,-1.953125,-5.2490234375
1781494020.407255,0.037110125732421874,-2.139219183349609,9.67856021118164,1.46484375,-1.89208984375,-5.43212890625
1781494020.411255,0.05386953735351562,-2.129642376708984,9.6917283203125,1.8310546875,-1.64794921875,-5.55419921875
1781494020.4152548,0.0526724365234375,-2.0829554443359375,9.694122521972655,2.0751953125,-1.708984375,-5.4931640625
1781494020.4192548,0.08259995727539061,-2.085349645996094,9.724050042724608,1.89208984375,-1.8310546875,-5.79833984375
1781494020.4232547,0.11133037719726561,-2.0458453186035155,9.771934075927733,1.89208984375,-1.64794921875,-5.31005859375
1781494020.4272547,0.10773907470703124,-2.0638018310546875,9.781510882568359,1.953125,-1.64794921875,-5.37109375
1781494020.4312546,0.1304839904785156,-2.0458453186035155,9.777919580078125,1.708984375,-1.5869140625,-5.2490234375
1781494020.4352546,0.1352723937988281,-2.0458453186035155,9.77432827758789,1.64794921875,-1.8310546875,-5.43212890625
1781494020.4392545,0.1304839904785156,-2.068590234375,9.791087689208984,1.64794921875,-1.89208984375,-5.43212890625
1781494020.4432545,0.1149216796875,-2.0542250244140625,9.771934075927733,1.3427734375,-1.708984375,-5.43212890625
1781494020.4472544,0.14125789794921875,-2.094926452636719,9.79946739501953,1.46484375,-1.64794921875,-5.2490234375
1781494020.4512544,0.10295067138671875,-2.0841525451660154,9.80066449584961,1.40380859375,-1.52587890625,-4.7607421875
1781494020.4552543,0.13766659545898435,-2.105700360107422,9.776722479248047,1.64794921875,-1.3427734375,-5.06591796875
1781494020.4592543,0.12569558715820311,-2.098517755126953,9.764751470947266,1.77001953125,-1.15966796875,-4.57763671875
1781494020.4632542,0.10414777221679687,-2.099714855957031,9.731232647705077,2.197265625,-1.220703125,-4.45556640625
1781494020.4672542,0.08499415893554688,-2.0757728393554684,9.72285294189453,2.9296875,-0.79345703125,-4.21142578125
1781494020.471254,0.1005564697265625,-2.053027923583984,9.70369932861328,3.47900390625,-1.03759765625,-3.72314453125
1781494020.475254,0.07302315063476562,-2.053027923583984,9.679757312011718,4.08935546875,-0.67138671875,-3.5400390625
1781494020.479254,0.058657940673828124,-2.0266917053222655,9.674968908691406,4.39453125,-0.54931640625,-3.23486328125
1781494020.483254,0.062249243164062495,-2.005143890380859,9.665392102050781,5.126953125,-0.54931640625,-2.685546875
1781494020.487254,0.0430956298828125,-1.9752163696289062,9.666589202880859,5.37109375,-0.3662109375,-2.13623046875
1781494020.4912539,0.05626373901367187,-1.9321207397460936,9.69771382446289,5.859375,-0.3662109375,-2.13623046875
1781494020.4952538,0.06943184814453125,-1.9225439331054686,9.727641345214844,5.9814453125,-0.6103515625,-1.40380859375
1781494020.4992537,0.07422025146484375,-1.8806454040527343,9.751583361816406,5.859375,-0.67138671875,-1.03759765625
1781494020.5032537,0.08499415893554688,-1.886630908203125,9.776722479248047,5.7373046875,-0.67138671875,-0.8544921875
1781494020.5072536,0.076614453125,-1.8938135131835936,9.773131176757811,5.55419921875,-0.79345703125,-0.54931640625
1781494020.5112536,0.08858546142578125,-1.8830396057128904,9.798270294189452,5.18798828125,-0.9765625,-0.244140625
1781494020.5152535,0.09457096557617187,-1.8830396057128904,9.78629928588867,4.638671875,-1.220703125,-0.1220703125
1781494020.5192535,0.07781155395507812,-1.89620771484375,9.783905084228515,4.0283203125,-1.03759765625,-0.06103515625
1781494020.5232534,0.07781155395507812,-1.9045874206542968,9.776722479248047,3.7841796875,-0.91552734375,-0.244140625
1781494020.5272534,0.12090718383789062,-1.9189526306152342,9.728838446044922,3.0517578125,-0.9765625,0.0
1781494020.5312533,0.1149216796875,-1.898601916503906,9.719261639404296,2.44140625,-0.79345703125,-0.244140625
1781494020.5352533,0.09576806640624999,-1.9189526306152342,9.6917283203125,1.77001953125,-0.3662109375,-0.3662109375
1781494020.5392532,0.13646949462890623,-1.9009961181640624,9.652223992919922,1.3427734375,-0.30517578125,-0.1220703125
1781494020.5432532,0.11013327636718749,-1.8722656982421875,9.651026892089844,0.9765625,0.0,-0.48828125
1781494020.5472531,0.11013327636718749,-1.8950106140136718,9.612719665527344,0.6103515625,0.244140625,-0.54931640625
1781494020.551253,0.105344873046875,-1.8770541015625,9.586383447265625,0.244140625,0.18310546875,-0.42724609375
1781494020.555253,0.12569558715820311,-1.859097589111328,9.56363853149414,0.244140625,0.42724609375,-0.3662109375
1781494020.559253,0.0909796630859375,-1.8638859924316404,9.554061724853515,-0.06103515625,0.48828125,-0.48828125
1781494020.563253,0.07541735229492187,-1.8638859924316404,9.555258825683593,-0.06103515625,0.30517578125,-0.1220703125
1781494020.5672529,0.0718260498046875,-1.8423381774902343,9.580397943115234,-0.06103515625,0.54931640625,0.0
1781494020.5712528,0.07062894897460938,-1.830367169189453,9.566032733154296,0.3662109375,0.54931640625,0.06103515625
1781494020.5752528,0.034715924072265626,-1.8183961608886718,9.59476315307617,0.0,0.3662109375,-0.06103515625
1781494020.5792527,0.015562310791015624,-1.8339584716796873,9.578003741455078,0.06103515625,-0.06103515625,0.30517578125
1781494020.5832527,-0.00718260498046875,-1.8315642700195311,9.576806640625,-0.30517578125,-0.244140625,0.1220703125
1781494020.5872526,-0.005985504150390624,-1.8267758666992187,9.595960253906249,-0.30517578125,-0.48828125,0.30517578125
1781494020.5912526,-0.031124621582031248,-1.8255787658691405,9.609128363037108,-0.48828125,-0.67138671875,0.48828125
1781494020.5952525,-0.06823474731445311,-1.8614917907714843,9.62109937133789,-0.67138671875,-0.42724609375,0.1220703125
1781494020.5992525,-0.08140285644531249,-1.8698714965820311,9.592368951416015,-0.9765625,-0.244140625,0.244140625
1781494020.6032383,-0.08978256225585937,-1.8830396057128904,9.630676177978515,-1.220703125,-0.54931640625,0.18310546875
1781494020.6072383,-0.076614453125,-1.9309236389160156,9.648632690429688,-1.3427734375,-0.54931640625,0.0
1781494020.6112382,-0.07900865478515624,-1.9512743530273435,9.67856021118164,-1.28173828125,-1.03759765625,-0.1220703125
1781494020.6152382,-0.04189852905273437,-1.9285294372558592,9.757568865966796,-1.52587890625,-1.28173828125,-0.3662109375
1781494020.6192381,-0.005985504150390624,-1.9608511596679685,9.81263550415039,-1.28173828125,-2.197265625,-0.3662109375
1781494020.623238,0.02633621826171875,-1.9572598571777342,9.843760125732421,-1.03759765625,-2.74658203125,0.0
1781494020.627238,0.037110125732421874,-1.9764134704589842,9.848548529052733,-0.9765625,-3.47900390625,-0.3662109375
1781494020.631238,0.047884033203124995,-1.9800047729492187,9.872490545654296,-0.79345703125,-4.08935546875,-0.30517578125
1781494020.635238,0.044292730712890624,-1.9967641845703124,9.861716638183593,-1.03759765625,-4.39453125,-0.54931640625
1781494020.6392379,0.08738836059570312,-1.9895815795898437,9.86411083984375,-0.732421875,-5.0048828125,-0.67138671875
1781494020.6432378,0.12808978881835936,-2.012326495361328,9.861716638183593,-0.8544921875,-5.43212890625,-0.8544921875
1781494020.6472378,0.1580173095703125,-2.0470424194335934,9.847351428222655,-0.8544921875,-5.615234375,-0.91552734375
1781494020.6512377,0.17238251953125,-2.0302830078125,9.834183319091796,-0.79345703125,-5.7373046875,-1.40380859375
1781494020.6552377,0.21188684692382811,-2.031480108642578,9.779116680908203,-1.28173828125,-5.55419921875,-1.5869140625
1781494020.6592376,0.201112939453125,-2.032677209472656,9.78629928588867,-1.46484375,-5.06591796875,-1.8310546875
1781494020.6632376,0.22505495605468748,-2.041056915283203,9.767145672607422,-1.5869140625,-4.82177734375,-2.0751953125
1781494020.6672375,0.26336218261718747,-2.080561242675781,9.75517466430664,-1.77001953125,-4.150390625,-2.38037109375
1781494020.6712375,0.2597708801269531,-2.0733786376953125,9.764751470947266,-2.13623046875,-3.90625,-2.9296875
1781494020.6752374,0.2813186950683594,-2.080561242675781,9.764751470947266,-2.50244140625,-3.35693359375,-2.86865234375
1781494020.6792374,0.26815058593749996,-2.067393133544922,9.749189160156249,-2.74658203125,-2.8076171875,-2.9296875
1781494020.6832373,0.28012159423828126,-2.067393133544922,9.732429748535155,-2.44140625,-2.01416015625,-2.99072265625
1781494020.6872373,0.2813186950683594,-2.090138049316406,9.745597857666015,-2.50244140625,-1.77001953125,-2.86865234375
1781494020.6912372,0.2741360900878906,-2.076969940185547,9.771934075927733,-2.3193359375,-1.3427734375,-2.99072265625
1781494020.6952372,0.2561795776367187,-2.086546746826172,9.783905084228515,-1.953125,-0.91552734375,-3.0517578125
1781494020.699237,0.27174188842773433,-2.0470424194335934,9.804255798339844,-1.46484375,-0.732421875,-2.685546875
1781494020.703237,0.2609679809570312,-2.0266917053222655,9.811438403320311,-1.03759765625,-0.18310546875,-2.3193359375
1781494020.707237,0.23343466186523437,-2.029085906982422,9.794678991699218,-0.8544921875,-0.1220703125,-2.25830078125
1781494020.711237,0.23822306518554687,-2.0278888061523435,9.781510882568359,-0.42724609375,0.06103515625,-1.77001953125
1781494020.715237,0.23343466186523437,-2.014720697021484,9.78031378173828,-0.42724609375,0.244140625,-1.89208984375
1781494020.7192369,0.23223756103515625,-2.0171148986816405,9.783905084228515,-0.42724609375,0.67138671875,-1.28173828125
1781494020.7232368,0.22744915771484372,-2.0075380920410155,9.77432827758789,-0.54931640625,0.8544921875,-0.732421875
1781494020.7272367,0.20949264526367187,-2.021903302001953,9.751583361816406,-0.42724609375,0.8544921875,-0.67138671875
1781494020.7312367,0.18435352783203124,-2.032677209472656,9.731232647705077,-0.18310546875,1.15966796875,-0.3662109375
1781494020.7352366,0.16759411621093748,-2.0266917053222655,9.731232647705077,0.0,1.15966796875,-0.18310546875
1781494020.7392366,0.16759411621093748,-2.043451116943359,9.726444244384766,-0.18310546875,1.46484375,0.1220703125
1781494020.7432365,0.11133037719726561,-2.043451116943359,9.751583361816406,-0.18310546875,1.40380859375,0.42724609375
1781494020.7472365,0.10893617553710937,-2.014720697021484,9.737218151855469,-0.30517578125,1.40380859375,0.67138671875
1781494020.7512364,0.08140285644531249,-2.039859814453125,9.737218151855469,0.0,1.220703125,0.732421875
1781494020.7552364,0.06464344482421874,-2.0183119995117185,9.738415252685547,0.18310546875,1.3427734375,0.91552734375
1781494020.7592363,0.029927520751953124,-2.041056915283203,9.739612353515625,0.30517578125,0.91552734375,1.15966796875
1781494020.7632363,-0.015562310791015624,-2.04943662109375,9.733626849365233,0.732421875,0.9765625,1.28173828125
1781494020.7672362,-0.008379705810546874,-2.014720697021484,9.725247143554688,1.40380859375,0.8544921875,1.5869140625
1781494020.7712362,-0.022744915771484374,-1.9823989746093749,9.733626849365233,1.77001953125,0.244140625,1.77001953125
1781494020.7752361,-0.029927520751953124,-1.9752163696289062,9.737218151855469,2.0751953125,0.0,2.01416015625
1781494020.779236,-0.0047884033203125,-1.9788076721191405,9.732429748535155,2.25830078125,-0.54931640625,2.0751953125
1781494020.783236,-0.020350714111328123,-1.9416975463867185,9.749189160156249,2.44140625,-0.9765625,2.38037109375
1781494020.787236,-0.027533319091796873,-1.916558428955078,9.745597857666015,3.0517578125,-1.708984375,2.685546875
1781494020.791236,0.010773907470703125,-1.9225439331054686,9.74799205932617,3.23486328125,-2.0751953125,2.62451171875
1781494020.795176,0.023942016601562498,-1.9309236389160156,9.767145672607422,3.0517578125,-2.44140625,2.5634765625
1781494020.799176,0.04189852905273437,-1.9141642272949217,9.720458740234374,3.11279296875,-2.9296875,2.74658203125
1781494020.803176,0.022744915771484374,-1.9500772521972656,9.701305126953125,3.173828125,-3.2958984375,2.62451171875
1781494020.8071759,0.034715924072265626,-1.9632453613281249,9.666589202880859,2.9296875,-3.5400390625,2.685546875
1781494020.8111322,0.07302315063476562,-2.002749688720703,9.64623848876953,3.173828125,-3.60107421875,2.3193359375
1781494020.8151321,0.04189852905273437,-1.9955670837402342,9.622296472167967,2.9296875,-3.7841796875,2.01416015625
1781494020.819132,0.06823474731445311,-1.9943699829101562,9.624690673828125,2.8076171875,-3.41796875,1.03759765625
1781494020.823132,0.06943184814453125,-1.9907786804199217,9.63307037963867,2.8076171875,-3.173828125,0.6103515625
1781494020.827132,0.08738836059570312,-1.9967641845703124,9.605537060546874,2.38037109375,-2.86865234375,0.244140625
1781494020.831132,0.12090718383789062,-2.013523596191406,9.64623848876953,2.5634765625,-2.74658203125,-0.244140625
1781494020.835132,0.10295067138671875,-1.9812018737792967,9.619902270507811,2.3193359375,-2.38037109375,-0.6103515625
1781494020.8391318,0.10773907470703124,-1.9752163696289062,9.648632690429688,2.44140625,-2.5634765625,-0.9765625
1781494020.8431318,0.07900865478515624,-1.9680337646484374,9.685742816162108,2.3193359375,-2.3193359375,-1.5869140625
1781494020.8471317,0.08858546142578125,-1.9393033447265624,9.68454571533203,2.13623046875,-2.25830078125,-1.77001953125
1781494020.8511317,0.08499415893554688,-1.9033903198242186,9.68454571533203,2.25830078125,-2.13623046875,-2.197265625
1781494020.8551316,0.09935936889648436,-1.868674395751953,9.690531219482422,2.44140625,-2.13623046875,-2.50244140625
1781494020.8591316,0.1149216796875,-1.849520782470703,9.686939916992188,2.50244140625,-2.13623046875,-2.62451171875
1781494020.8631315,0.12569558715820311,-1.8614917907714843,9.706093530273437,2.197265625,-2.13623046875,-2.685546875
1781494020.8671315,0.1352723937988281,-1.8279729675292968,9.727641345214844,2.38037109375,-2.197265625,-3.173828125
1781494020.8711314,0.15442600708007811,-1.8339584716796873,9.7683427734375,1.953125,-2.50244140625,-3.35693359375
1781494020.8751314,0.19153613281249998,-1.8459294799804686,9.804255798339844,1.64794921875,-2.50244140625,-3.2958984375
1781494020.8791313,0.20709844360351562,-1.8830396057128904,9.78031378173828,1.3427734375,-2.8076171875,-3.41796875
1781494020.8831313,0.18555062866210936,-1.868674395751953,9.783905084228515,1.3427734375,-2.62451171875,-3.23486328125
1781494020.8871312,0.18315642700195311,-1.8770541015625,9.757568865966796,0.732421875,-2.44140625,-3.60107421875
1781494020.8911312,0.16639701538085935,-1.8770541015625,9.764751470947266,0.79345703125,-2.13623046875,-3.90625
1781494020.895131,0.17118541870117188,-1.889025109863281,9.769539874267577,0.42724609375,-1.64794921875,-3.72314453125
1781494020.899131,0.16280571289062498,-1.8902222106933593,9.745597857666015,0.30517578125,-1.5869140625,-4.08935546875
1781494020.903131,0.1592144104003906,-1.8614917907714843,9.757568865966796,0.0,-1.0986328125,-4.0283203125
1781494020.907131,0.20350714111328125,-1.8614917907714843,9.773131176757811,0.0,-0.79345703125,-3.72314453125
1781494020.911131,0.21787235107421873,-1.8363526733398436,9.795876092529296,0.0,-0.54931640625,-3.60107421875
1781494020.9151309,0.22026655273437498,-1.8818425048828125,9.770736975097655,-0.18310546875,-0.06103515625,-3.173828125
1781494020.9191308,0.23702596435546874,-1.8423381774902343,9.787496386718749,0.18310546875,-0.30517578125,-2.8076171875
1781494020.9231308,0.21188684692382811,-1.8231845642089843,9.781510882568359,0.42724609375,-0.244140625,-2.99072265625
1781494020.9271307,0.2154781494140625,-1.8327613708496093,9.803058697509766,0.3662109375,0.3662109375,-2.38037109375
1781494020.9311306,0.2346317626953125,-1.8351555725097655,9.792284790039062,0.54931640625,0.67138671875,-1.89208984375
1781494020.9351306,0.23223756103515625,-1.8519149841308593,9.792284790039062,0.67138671875,0.6103515625,-1.708984375
1781494020.9391305,0.26336218261718747,-1.867477294921875,9.787496386718749,0.67138671875,1.03759765625,-0.9765625
1781494020.9431305,0.2645592834472656,-1.8722656982421875,9.765948571777344,0.6103515625,0.67138671875,-0.732421875
1781494020.9471304,0.24660277099609373,-1.8950106140136718,9.76116016845703,0.244140625,0.8544921875,-0.42724609375
1781494020.9511304,0.21428104858398436,-1.924938134765625,9.76235726928711,0.244140625,0.9765625,-0.18310546875
1781494020.9551303,0.19393033447265623,-1.927332336425781,9.78629928588867,0.42724609375,1.0986328125,0.18310546875
1781494020.9591303,0.20231004028320312,-1.9716250671386717,9.816226806640625,0.42724609375,0.9765625,0.42724609375
1781494020.9631302,0.16879121704101563,-1.964442462158203,9.83777462158203,0.18310546875,1.28173828125,0.67138671875
1781494020.9671302,0.19393033447265623,-1.9776105712890624,9.861716638183593,-0.06103515625,1.03759765625,0.91552734375
1781494020.9711301,0.1640028137207031,-1.9716250671386717,9.853336932373047,0.0,1.03759765625,1.0986328125
1781494020.97513,0.18555062866210936,-1.9955670837402342,9.848548529052733,0.06103515625,0.48828125,1.220703125
1781494020.97913,0.1640028137207031,-1.9812018737792967,9.85094273071289,0.06103515625,0.244140625,1.28173828125
1781494020.98313,0.17238251953125,-1.993172882080078,9.854534033203125,0.30517578125,0.1220703125,1.46484375
1781494020.98713,0.15203180541992187,-2.001552587890625,9.860519537353515,0.3662109375,-0.18310546875,1.52587890625
1781494020.9911299,0.16519991455078123,-1.9788076721191405,9.835380419921874,0.732421875,-0.3662109375,1.52587890625
1781494020.9951298,0.14484920043945312,-1.9788076721191405,9.841365924072266,0.67138671875,-0.42724609375,1.5869140625
1781494020.9991298,0.17238251953125,-1.9847931762695312,9.849745629882811,1.03759765625,-0.3662109375,1.5869140625
1781494021.0031297,0.18435352783203124,-2.0075380920410155,9.836577520751952,1.0986328125,-0.48828125,1.52587890625
1781494021.0071297,0.18076222534179687,-1.9991583862304687,9.823409411621093,1.15966796875,-0.48828125,1.40380859375
1781494021.0111296,0.19632453613281248,-2.0171148986816405,9.803058697509766,1.46484375,-0.48828125,0.9765625
1781494021.0151296,0.20231004028320312,-2.0362685119628905,9.805452899169921,1.28173828125,-0.42724609375,1.03759765625
1781494021.0191295,0.16160861206054686,-2.0183119995117185,9.771934075927733,1.52587890625,-0.3662109375,0.9765625
1781494021.0231295,0.19393033447265623,-2.085349645996094,9.76116016845703,1.46484375,-0.244140625,0.91552734375
1781494021.0271294,0.16639701538085935,-2.0733786376953125,9.743203656005859,1.40380859375,0.0,0.54931640625
1781494021.0311294,0.16879121704101563,-2.094926452636719,9.727641345214844,1.953125,0.1220703125,0.3662109375
1781494021.0351293,0.15682020874023436,-2.085349645996094,9.690531219482422,2.01416015625,0.6103515625,0.42724609375
1781494021.0391293,0.15203180541992187,-2.069787335205078,9.673771807861328,1.953125,0.91552734375,0.06103515625
1781494021.0431292,0.13287819213867186,-2.059013427734375,9.683348614501952,2.197265625,1.0986328125,-0.18310546875
1781494021.0471292,0.12210428466796874,-2.0087351928710935,9.680954412841796,2.25830078125,1.40380859375,-0.244140625
1781494021.051129,0.1640028137207031,-1.9859902770996092,9.69771382446289,2.38037109375,1.52587890625,-0.48828125
1781494021.055129,0.16160861206054686,-1.9776105712890624,9.749189160156249,2.62451171875,1.77001953125,-0.67138671875
1781494021.059129,0.1771709228515625,-1.945288848876953,9.76235726928711,2.62451171875,1.5869140625,-0.48828125
1781494021.063129,0.14724340209960937,-1.9393033447265624,9.783905084228515,2.9296875,1.5869140625,-0.30517578125
1781494021.067129,0.15322890625,-1.8902222106933593,9.791087689208984,3.41796875,1.0986328125,-0.06103515625
1781494021.0711288,0.12689268798828124,-1.8902222106933593,9.81263550415039,3.2958984375,0.8544921875,-0.1220703125
1781494021.0751288,0.13407529296874998,-1.8531120849609375,9.811438403320311,3.84521484375,0.8544921875,0.0
1781494021.0791287,0.15203180541992187,-1.8088193542480469,9.819818109130859,3.72314453125,0.18310546875,-0.06103515625
1781494021.0831287,0.15083470458984374,-1.8315642700195311,9.81263550415039,4.2724609375,-0.06103515625,0.30517578125
1781494021.0871286,0.12808978881835936,-1.8267758666992187,9.79946739501953,4.150390625,-0.3662109375,0.54931640625
1781494021.0911286,0.11013327636718749,-1.8171990600585937,9.785102185058593,4.150390625,-0.732421875,0.79345703125
1781494021.0951285,0.15442600708007811,-1.8100164550781248,9.782707983398437,4.33349609375,-0.79345703125,0.67138671875
1781494021.0991285,0.17118541870117188,-1.7788918334960937,9.767145672607422,4.45556640625,-0.9765625,0.79345703125
1781494021.1031284,0.16280571289062498,-1.8148048583984373,9.746794958496093,4.150390625,-1.03759765625,0.79345703125
1781494021.1071284,0.18435352783203124,-1.8279729675292968,9.731232647705077,3.90625,-1.03759765625,0.91552734375
1781494021.1111283,0.20709844360351562,-1.8243816650390623,9.725247143554688,3.84521484375,-0.732421875,0.79345703125
1781494021.1151283,0.21188684692382811,-1.839943975830078,9.702502227783203,3.662109375,-0.54931640625,0.8544921875
1781494021.1191282,0.20829554443359374,-1.848323681640625,9.707290631103515,3.72314453125,-0.3662109375,0.8544921875
1781494021.1231282,0.21188684692382811,-1.8171990600585937,9.707290631103515,3.72314453125,-0.1220703125,1.03759765625
1781494021.1271281,0.21787235107421873,-1.8267758666992187,9.696516723632811,3.41796875,0.244140625,0.79345703125
1781494021.131128,0.2166752502441406,-1.8171990600585937,9.721655841064452,3.173828125,0.67138671875,0.79345703125
1781494021.135128,0.22744915771484372,-1.820790362548828,9.713276135253906,3.5400390625,0.732421875,0.9765625
1781494021.139128,0.22744915771484372,-1.7776947326660155,9.734823950195311,3.5400390625,0.79345703125,0.8544921875
1781494021.143128,0.23582886352539062,-1.7932570434570312,9.74200655517578,3.5400390625,0.732421875,0.91552734375
1781494021.1471279,0.2346317626953125,-1.782483135986328,9.770736975097655,3.7841796875,0.732421875,1.0986328125
1781494021.1511278,0.21188684692382811,-1.7980454467773437,9.763554370117188,3.90625,0.244140625,1.220703125
1781494021.1551278,0.19871873779296872,-1.8028338500976562,9.771934075927733,4.2724609375,0.244140625,1.28173828125
1781494021.1591277,0.1975216369628906,-1.8088193542480469,9.745597857666015,3.96728515625,0.244140625,1.46484375
1781494021.1631277,0.17956512451171874,-1.8100164550781248,9.737218151855469,4.150390625,0.1220703125,1.46484375
1781494021.1671276,0.19871873779296872,-1.772906329345703,9.737218151855469,4.150390625,0.06103515625,1.28173828125
1781494021.1711276,0.18914193115234373,-1.7932570434570312,9.725247143554688,4.33349609375,-0.18310546875,1.3427734375
1781494021.1751275,0.19512743530273435,-1.792059942626953,9.701305126953125,4.08935546875,-0.1220703125,1.3427734375
1781494021.1791275,0.19991583862304688,-1.8052280517578123,9.682151513671874,4.33349609375,-0.42724609375,1.46484375
1781494021.1831274,0.20470424194335937,-1.8363526733398436,9.658209497070311,4.08935546875,-0.54931640625,1.0986328125
1781494021.1871274,0.21308394775390624,-1.8243816650390623,9.680954412841796,4.08935546875,-0.30517578125,1.15966796875
1781494021.1911273,0.20350714111328125,-1.8447323791503905,9.6917283203125,3.5400390625,-0.244140625,0.8544921875
1781494021.1951272,0.20949264526367187,-1.839943975830078,9.686939916992188,3.41796875,0.1220703125,1.0986328125
1781494021.1991272,0.22266075439453123,-1.8231845642089843,9.690531219482422,3.2958984375,0.18310546875,0.67138671875
1781494021.2031271,0.2549824768066406,-1.8171990600585937,9.70968483276367,2.8076171875,0.3662109375,0.8544921875
1781494021.207127,0.2059013427734375,-1.8171990600585937,9.704896429443359,2.50244140625,0.54931640625,0.3662109375
1781494021.211127,0.22744915771484372,-1.8160019592285155,9.698910925292969,2.44140625,0.42724609375,0.48828125
1781494021.215127,0.24779987182617186,-1.7848773376464844,9.727641345214844,2.197265625,0.244140625,0.0
1781494021.219127,0.258573779296875,-1.8088193542480469,9.749189160156249,1.64794921875,0.3662109375,0.0
1781494021.223127,0.22266075439453123,-1.8100164550781248,9.7683427734375,1.64794921875,0.54931640625,-0.244140625
1781494021.2271268,0.19991583862304688,-1.811213555908203,9.770736975097655,1.0986328125,0.3662109375,-0.3662109375
1781494021.2311268,0.19512743530273435,-1.7968483459472655,9.749189160156249,1.15966796875,0.732421875,-0.6103515625
1781494021.2351267,0.18076222534179687,-1.7764976318359373,9.733626849365233,1.0986328125,0.244140625,-0.54931640625
1781494021.2391267,0.14245499877929688,-1.7800889343261719,9.72285294189453,0.79345703125,0.48828125,-0.79345703125
1781494021.2431266,0.16639701538085935,-1.8327613708496093,9.72285294189453,0.42724609375,0.54931640625,-0.91552734375
1781494021.2471266,0.13766659545898435,-1.8171990600585937,9.725247143554688,-0.18310546875,0.79345703125,-1.15966796875
1781494021.2511265,0.1292868896484375,-1.8243816650390623,9.743203656005859,-0.30517578125,0.30517578125,-1.0986328125
1781494021.2551265,0.12689268798828124,-1.8064251525878905,9.738415252685547,-0.48828125,0.67138671875,-1.220703125
1781494021.2591264,0.13407529296874998,-1.8447323791503905,9.718064538574218,-0.48828125,0.54931640625,-1.220703125
1781494021.2631264,0.1352723937988281,-1.8531120849609375,9.738415252685547,-0.8544921875,0.3662109375,-0.9765625
1781494021.2671263,0.12689268798828124,-1.838746875,9.72285294189453,-0.91552734375,0.244140625,-0.9765625
1781494021.2711263,0.14484920043945312,-1.838746875,9.718064538574218,-0.732421875,0.18310546875,-0.6103515625
1781494021.2751262,0.15322890625,-1.8531120849609375,9.71686743774414,-0.732421875,0.06103515625,-0.54931640625
1781494021.2791262,0.1484405029296875,-1.830367169189453,9.713276135253906,-0.732421875,-0.6103515625,-0.48828125
1781494021.283126,0.12808978881835936,-1.8183961608886718,9.727641345214844,-0.3662109375,-0.54931640625,-0.42724609375
1781494021.287126,0.15562310791015624,-1.8351555725097655,9.74200655517578,-0.3662109375,-0.91552734375,-0.1220703125
1781494021.291126,0.16160861206054686,-1.820790362548828,9.721655841064452,-0.18310546875,-1.0986328125,0.0
1781494021.295126,0.201112939453125,-1.8195932617187498,9.726444244384766,0.30517578125,-0.9765625,0.3662109375
1781494021.299126,0.20231004028320312,-1.8471265808105468,9.730035546875,0.6103515625,-1.220703125,0.54931640625
1781494021.3031259,0.1975216369628906,-1.8279729675292968,9.733626849365233,0.732421875,-1.220703125,0.54931640625
1781494021.3071258,0.20709844360351562,-1.820790362548828,9.750386260986328,1.0986328125,-1.15966796875,0.54931640625
1781494021.3111258,0.20949264526367187,-1.7872715393066405,9.765948571777344,1.5869140625,-1.28173828125,0.67138671875
1781494021.3151257,0.2609679809570312,-1.772906329345703,9.764751470947266,1.8310546875,-1.15966796875,0.42724609375
1781494021.3191257,0.22744915771484372,-1.7717092285156248,9.7683427734375,2.0751953125,-1.28173828125,0.67138671875
1781494021.3231256,0.26216508178710934,-1.763329522705078,9.78031378173828,2.3193359375,-1.220703125,0.91552734375
1781494021.3271255,0.2597708801269531,-1.7609353210449217,9.788693487548828,2.44140625,-1.40380859375,0.67138671875
1781494021.3311255,0.2549824768066406,-1.7621324218749999,9.783905084228515,2.74658203125,-1.46484375,0.67138671875
1781494021.3351254,0.239420166015625,-1.7848773376464844,9.769539874267577,2.62451171875,-0.91552734375,0.6103515625
1781494021.3391254,0.2454056701660156,-1.7585411193847655,9.75517466430664,2.44140625,-0.79345703125,0.3662109375
1781494021.3431253,0.27293898925781246,-1.7968483459472655,9.752780462646484,2.50244140625,-0.3662109375,0.06103515625
1781494021.3471253,0.26336218261718747,-1.782483135986328,9.75517466430664,1.953125,-0.30517578125,-0.18310546875
1781494021.3511252,0.2705447875976562,-1.7848773376464844,9.746794958496093,1.64794921875,0.0,-0.42724609375
1781494021.3551252,0.2693476867675781,-1.7860744384765623,9.728838446044922,1.40380859375,-0.1220703125,-0.54931640625
1781494021.3591251,0.29089550170898437,-1.7741034301757812,9.750386260986328,1.28173828125,0.3662109375,-0.6103515625
1781494021.363125,0.32441432495117184,-1.7681179260253905,9.745597857666015,0.8544921875,0.1220703125,-0.8544921875
1781494021.367125,0.3555389465332031,-1.7645266235351562,9.752780462646484,0.91552734375,0.244140625,-0.79345703125
1781494021.371125,0.3459621398925781,-1.7657237243652342,9.765948571777344,0.79345703125,0.3662109375,-1.03759765625
1781494021.375125,0.3387795349121094,-1.7669208251953124,9.750386260986328,0.6103515625,0.30517578125,-1.03759765625
1781494021.3791249,0.3495534423828125,-1.7860744384765623,9.749189160156249,0.48828125,0.18310546875,-0.91552734375
1781494021.3831248,0.3435679382324219,-1.7681179260253905,9.714473236083984,0.6103515625,0.06103515625,-0.91552734375
1781494021.3871248,0.3124433166503906,-1.7968483459472655,9.720458740234374,0.67138671875,0.1220703125,-0.79345703125
1781494021.3911247,0.3076549133300781,-1.7741034301757812,9.714473236083984,0.54931640625,0.0,-1.03759765625
1781494021.3951247,0.29089550170898437,-1.7657237243652342,9.721655841064452,0.6103515625,0.3662109375,-1.15966796875
1781494021.3991246,0.26336218261718747,-1.7705121276855467,9.694122521972655,0.48828125,0.42724609375,-1.0986328125
1781494021.4031246,0.26336218261718747,-1.7585411193847655,9.701305126953125,0.42724609375,0.732421875,-1.28173828125
1781494021.4071245,0.2609679809570312,-1.7453730102539062,9.698910925292969,0.42724609375,0.91552734375,-1.28173828125
1781494021.4111245,0.2645592834472656,-1.7274164978027342,9.680954412841796,0.30517578125,1.03759765625,-1.64794921875
1781494021.4151244,0.28012159423828126,-1.7369933044433592,9.680954412841796,0.244140625,0.9765625,-1.40380859375
1781494021.4191244,0.2657563842773437,-1.7477672119140624,9.6917283203125,0.1220703125,1.220703125,-1.52587890625
1781494021.4231243,0.28371289672851563,-1.7764976318359373,9.702502227783203,-0.1220703125,1.46484375,-1.77001953125
1781494021.4271243,0.2741360900878906,-1.7741034301757812,9.685742816162108,-0.42724609375,1.3427734375,-1.40380859375
1781494021.4311242,0.2501940734863281,-1.7753005310058592,9.696516723632811,-0.67138671875,1.28173828125,-1.64794921875
1781494021.4351242,0.2561795776367187,-1.7477672119140624,9.673771807861328,-0.9765625,1.708984375,-1.5869140625
1781494021.439124,0.2561795776367187,-1.7753005310058592,9.666589202880859,-1.220703125,1.220703125,-1.708984375
1781494021.443124,0.22385785522460935,-1.7812860351562498,9.667786303710937,-1.220703125,1.40380859375,-1.52587890625
1781494021.447124,0.17956512451171874,-1.7848773376464844,9.658209497070311,-1.28173828125,1.220703125,-1.708984375
1781494021.451124,0.16759411621093748,-1.7812860351562498,9.660603698730467,-1.40380859375,1.28173828125,-1.64794921875
1781494021.455124,0.14006079711914063,-1.8052280517578123,9.674968908691406,-1.28173828125,1.03759765625,-1.5869140625
1781494021.4591238,0.12808978881835936,-1.7848773376464844,9.692925421142577,-1.40380859375,1.220703125,-1.708984375
1781494021.4631238,0.12689268798828124,-1.8040309509277344,9.700108026123047,-1.3427734375,0.9765625,-1.708984375
1781494021.4671237,0.07062894897460938,-1.7908628417968748,9.718064538574218,-1.03759765625,0.79345703125,-1.64794921875
1781494021.4711237,0.05985504150390625,-1.7717092285156248,9.718064538574218,-0.9765625,0.67138671875,-1.46484375
1781494021.4751236,0.040701428222656245,-1.7705121276855467,9.763554370117188,-0.79345703125,0.54931640625,-1.5869140625
1781494021.4791236,0.03232172241210937,-1.7669208251953124,9.815029705810547,-1.03759765625,0.3662109375,-1.5869140625
1781494021.4831235,0.03232172241210937,-1.7465701110839842,9.81263550415039,-0.79345703125,0.06103515625,-1.64794921875
1781494021.4871235,0.022744915771484374,-1.753752716064453,9.85094273071289,-0.79345703125,-0.244140625,-1.52587890625
1781494021.4911234,0.025139117431640625,-1.7717092285156248,9.898826763916015,-1.15966796875,-0.6103515625,-1.40380859375
1781494021.4951234,0.013168109130859374,-1.7908628417968748,9.925162982177733,-1.03759765625,-1.03759765625,-1.28173828125
1781494021.4991233,0.013168109130859374,-1.8040309509277344,9.913191973876952,-1.0986328125,-1.3427734375,-1.0986328125
1781494021.5031233,0.016759411621093748,-1.801636749267578,9.898826763916015,-1.03759765625,-1.89208984375,-1.0986328125
1781494021.5071232,0.011971008300781249,-1.8219874633789062,9.907206469726562,-1.220703125,-2.13623046875,-1.0986328125
1781494021.5111232,0.03591302490234375,-1.8279729675292968,9.872490545654296,-1.28173828125,-2.3193359375,-1.220703125
1781494021.5151231,0.028730419921875,-1.8351555725097655,9.86291373901367,-1.3427734375,-2.50244140625,-1.03759765625
1781494021.519123,0.03591302490234375,-1.830367169189453,9.83777462158203,-0.91552734375,-2.62451171875,-0.79345703125
1781494021.523123,0.05985504150390625,-1.8519149841308593,9.83777462158203,-1.03759765625,-2.74658203125,-0.67138671875
1781494021.527123,0.058657940673828124,-1.801636749267578,9.834183319091796,-0.79345703125,-2.685546875,-0.42724609375
1781494021.531123,0.09576806640624999,-1.8279729675292968,9.830592016601562,-0.67138671875,-2.5634765625,-0.54931640625
1781494021.5351229,0.12090718383789062,-1.7836802368164062,9.811438403320311,-0.67138671875,-2.685546875,-0.30517578125
1781494021.5391228,0.14006079711914063,-1.7788918334960937,9.835380419921874,-0.67138671875,-2.9296875,-0.18310546875
1781494021.5431228,0.17357962036132812,-1.7753005310058592,9.860519537353515,-0.48828125,-2.685546875,-0.06103515625
1781494021.5471227,0.23104046020507812,-1.7621324218749999,9.878476049804688,-0.42724609375,-3.0517578125,0.1220703125
1781494021.5511227,0.2609679809570312,-1.7705121276855467,9.886855755615233,-0.18310546875,-2.685546875,0.244140625
1781494021.5551226,0.2657563842773437,-1.8040309509277344,9.886855755615233,0.06103515625,-2.62451171875,0.732421875
1781494021.5591226,0.2825157958984375,-1.8171990600585937,9.866505041503906,0.1220703125,-2.50244140625,0.6103515625
1781494021.5631225,0.277727392578125,-1.8291700683593748,9.81862100830078,0.54931640625,-2.197265625,0.8544921875
1781494021.5671225,0.31483751831054685,-1.859097589111328,9.771934075927733,0.3662109375,-1.8310546875,0.732421875
1781494021.5711224,0.29448680419921874,-1.924938134765625,9.727641345214844,0.54931640625,-1.64794921875,0.79345703125
1781494021.5751224,0.2657563842773437,-1.9297265380859374,9.712079034423828,0.91552734375,-1.03759765625,0.732421875
1781494021.5791223,0.2501940734863281,-1.9728221679687499,9.676166009521484,1.28173828125,-0.48828125,0.48828125
1781494021.5831223,0.25737667846679685,-1.9428946472167967,9.661800799560547,1.46484375,0.18310546875,0.42724609375
1781494021.5871222,0.22266075439453123,-1.9788076721191405,9.652223992919922,1.64794921875,0.48828125,0.30517578125
1781494021.5911222,0.22505495605468748,-1.9596540588378906,9.645041387939452,1.89208984375,0.91552734375,0.1220703125
1781494021.595122,0.19991583862304688,-1.887828009033203,9.660603698730467,2.25830078125,1.03759765625,0.1220703125
1781494021.599122,0.17357962036132812,-1.8818425048828125,9.680954412841796,2.25830078125,1.3427734375,0.06103515625
1781494021.603122,0.1484405029296875,-1.8375497741699218,9.707290631103515,2.0751953125,1.28173828125,-0.06103515625
1781494021.607122,0.15682020874023436,-1.7764976318359373,9.726444244384766,1.953125,1.64794921875,0.1220703125
1781494021.611122,0.11731588134765625,-1.7525556152343749,9.773131176757811,1.89208984375,1.03759765625,-0.1220703125
1781494021.6151218,0.12210428466796874,-1.7274164978027342,9.809044201660155,1.64794921875,0.79345703125,0.1220703125
1781494021.6191218,0.10893617553710937,-1.7202338928222656,9.847351428222655,1.64794921875,0.6103515625,0.3662109375
1781494021.6231217,0.09457096557617187,-1.715445489501953,9.85692823486328,1.5869140625,0.06103515625,0.48828125
1781494021.6271217,0.08140285644531249,-1.715445489501953,9.882067352294921,1.64794921875,-0.6103515625,0.48828125
1781494021.6311216,0.12090718383789062,-1.7238251953125,9.906009368896484,1.3427734375,-1.15966796875,0.54931640625
1781494021.6351216,0.12449848632812499,-1.7573440185546874,9.920374578857421,1.220703125,-1.64794921875,0.91552734375
1781494021.6391215,0.1484405029296875,-1.7525556152343749,9.920374578857421,1.0986328125,-2.44140625,1.03759765625
1781494021.6431215,0.15562310791015624,-1.7657237243652342,9.896432562255859,1.03759765625,-2.685546875,1.28173828125
1781494021.6471214,0.15083470458984374,-1.772906329345703,9.860519537353515,0.67138671875,-3.47900390625,1.28173828125
1781494021.6511214,0.12808978881835936,-1.7848773376464844,9.822212310791015,0.732421875,-3.5400390625,1.40380859375
1781494021.6551213,0.15203180541992187,-1.8327613708496093,9.801861596679688,0.6103515625,-3.7841796875,1.46484375
1781494021.6591213,0.15322890625,-1.8423381774902343,9.744400756835937,0.244140625,-3.60107421875,1.40380859375
1781494021.6631212,0.23343466186523437,-1.8662801940917968,9.726444244384766,0.3662109375,-3.2958984375,1.220703125
1781494021.6671212,0.2597708801269531,-1.8830396057128904,9.667786303710937,0.06103515625,-3.173828125,1.15966796875
1781494021.6711211,0.2920926025390625,-1.8507178833007811,9.629479077148437,0.1220703125,-2.74658203125,1.03759765625
1781494021.675121,0.30885201416015623,-1.839943975830078,9.595960253906249,0.54931640625,-2.50244140625,0.9765625
1781494021.679121,0.3399766357421875,-1.8567033874511718,9.579200842285156,0.30517578125,-2.0751953125,0.9765625
1781494021.683121,0.3459621398925781,-1.8375497741699218,9.540893615722656,0.244140625,-1.3427734375,0.9765625
1781494021.687121,0.33399113159179683,-1.8160019592285155,9.5384994140625,0.42724609375,-0.79345703125,0.42724609375
1781494021.6911209,0.3268085266113281,-1.8052280517578123,9.549273321533203,0.06103515625,-0.1220703125,0.244140625
1781494021.6951208,0.33758243408203126,-1.772906329345703,9.5384994140625,-0.06103515625,0.54931640625,0.1220703125
1781494021.6991208,0.3435679382324219,-1.7226280944824217,9.566032733154296,0.1220703125,1.03759765625,0.0
1781494021.7031207,0.39863457641601563,-1.6735469604492186,9.593566052246093,0.0,1.52587890625,-0.1220703125
1781494021.7071207,0.39983167724609375,-1.68551796875,9.636661682128906,-0.244140625,1.40380859375,-0.18310546875
1781494021.7111206,0.38307226562499996,-1.6711527587890624,9.662997900390625,-0.3662109375,2.0751953125,-0.1220703125
1781494021.7151206,0.39983167724609375,-1.6998831787109374,9.707290631103515,-0.67138671875,2.0751953125,-0.244140625
1781494021.7191205,0.373495458984375,-1.696291876220703,9.740809454345703,-1.220703125,2.01416015625,-0.244140625
1781494021.7231205,0.34835634155273437,-1.6807295654296874,9.75517466430664,-1.708984375,1.953125,-0.30517578125
1781494021.7271204,0.33758243408203126,-1.7178396911621092,9.749189160156249,-2.0751953125,2.0751953125,-0.1220703125
1781494021.7311203,0.3220201232910156,-1.7525556152343749,9.777919580078125,-2.0751953125,2.44140625,-0.3662109375
1781494021.7351203,0.2645592834472656,-1.7896657409667969,9.773131176757811,-2.5634765625,2.0751953125,-0.6103515625
1781494021.7391202,0.25139117431640623,-1.782483135986328,9.770736975097655,-2.44140625,2.13623046875,-0.54931640625
1781494021.7431202,0.19871873779296872,-1.8195932617187498,9.726444244384766,-2.25830078125,1.953125,-0.48828125
1781494021.7471201,0.17357962036132812,-1.8375497741699218,9.739612353515625,-2.50244140625,1.77001953125,-0.79345703125
1781494021.75112,0.13287819213867186,-1.85790048828125,9.749189160156249,-2.38037109375,2.01416015625,-0.91552734375
1781494021.75512,0.1197100830078125,-1.8698714965820311,9.739612353515625,-2.01416015625,2.0751953125,-1.28173828125
1781494021.75912,0.10654197387695312,-1.85790048828125,9.719261639404296,-1.708984375,1.64794921875,-1.3427734375
1781494021.76312,0.07302315063476562,-1.8459294799804686,9.740809454345703,-1.5869140625,1.77001953125,-1.64794921875
1781494021.76712,0.05746083984375,-1.848323681640625,9.753977563476562,-1.28173828125,1.708984375,-1.5869140625
1781494021.7711198,0.09217676391601562,-1.8363526733398436,9.785102185058593,-0.8544921875,1.15966796875,-1.708984375
1781494021.7751198,0.09337386474609374,-1.8291700683593748,9.795876092529296,-0.67138671875,1.0986328125,-1.64794921875
1781494021.7791197,0.0718260498046875,-1.8267758666992187,9.83178911743164,-0.1220703125,0.67138671875,-1.77001953125
1781494021.7831197,0.08858546142578125,-1.8171990600585937,9.846154327392577,0.06103515625,0.3662109375,-2.01416015625
1781494021.7871196,0.09217676391601562,-1.8052280517578123,9.848548529052733,0.3662109375,-0.1220703125,-1.953125
1781494021.7911196,0.10654197387695312,-1.7549498168945312,9.865307940673828,0.6103515625,-0.67138671875,-2.13623046875
1781494021.7951195,0.15083470458984374,-1.7525556152343749,9.866505041503906,0.67138671875,-1.0986328125,-2.13623046875
1781494021.7991195,0.15203180541992187,-1.7657237243652342,9.87009634399414,0.79345703125,-1.52587890625,-2.0751953125
1781494021.8031194,0.1580173095703125,-1.7848773376464844,9.842563024902343,0.6103515625,-1.52587890625,-1.89208984375
1781494021.8071194,0.181959326171875,-1.7908628417968748,9.853336932373047,0.67138671875,-1.8310546875,-1.953125
1781494021.8111193,0.1927332336425781,-1.7872715393066405,9.80665,0.3662109375,-1.8310546875,-2.38037109375
1781494021.8151193,0.19991583862304688,-1.8231845642089843,9.783905084228515,0.30517578125,-2.0751953125,-2.685546875
1781494021.8191192,0.1592144104003906,-1.848323681640625,9.732429748535155,0.1220703125,-1.46484375,-2.62451171875
1781494021.8231192,0.19632453613281248,-1.868674395751953,9.725247143554688,0.0,-1.15966796875,-2.99072265625
1781494021.827119,0.22744915771484372,-1.8734627990722654,9.708487731933593,-0.244140625,-0.67138671875,-3.173828125
1781494021.831119,0.2262520568847656,-1.897404815673828,9.680954412841796,-0.3662109375,-0.244140625,-3.35693359375
1781494021.835119,0.201112939453125,-1.886630908203125,9.674968908691406,-0.30517578125,0.48828125,-3.60107421875
1781494021.839119,0.21906945190429686,-1.8997990173339843,9.670180505371093,0.06103515625,0.732421875,-3.47900390625
1781494021.843119,0.20949264526367187,-1.8914193115234375,9.682151513671874,0.42724609375,0.8544921875,-3.662109375
1781494021.8471189,0.18914193115234373,-1.8602946899414061,9.682151513671874,0.732421875,0.9765625,-3.72314453125
1781494021.8511188,0.20470424194335937,-1.8602946899414061,9.686939916992188,1.03759765625,1.220703125,-3.7841796875
1781494021.8551188,0.18914193115234373,-1.8567033874511718,9.712079034423828,1.3427734375,1.52587890625,-3.5400390625
1781494021.8591187,0.14484920043945312,-1.7992425476074219,9.73602105102539,1.8310546875,1.8310546875,-3.84521484375
1781494021.8631186,0.12449848632812499,-1.7860744384765623,9.75517466430664,1.953125,2.01416015625,-3.7841796875
1781494021.8671186,0.10175357055664062,-1.7741034301757812,9.749189160156249,2.3193359375,1.77001953125,-3.60107421875
1781494021.8711185,0.10175357055664062,-1.7549498168945312,9.749189160156249,2.5634765625,1.52587890625,-3.41796875
1781494021.8751185,0.10295067138671875,-1.7393875061035156,9.787496386718749,2.685546875,1.52587890625,-3.23486328125
1781494021.8791184,0.06943184814453125,-1.7405846069335937,9.807847100830077,2.8076171875,1.52587890625,-3.11279296875
1781494021.8831184,0.044292730712890624,-1.7262193969726563,9.810241302490233,2.5634765625,1.3427734375,-3.0517578125
1781494021.8871183,0.04189852905273437,-1.7238251953125,9.803058697509766,2.5634765625,0.8544921875,-2.8076171875
1781494021.8911183,0.05626373901367187,-1.7094599853515624,9.823409411621093,2.3193359375,0.91552734375,-2.86865234375
1781494021.8951182,0.058657940673828124,-1.7310078002929687,9.854534033203125,2.13623046875,0.48828125,-2.685546875
1781494021.8991182,0.10295067138671875,-1.7357962036132812,9.858125335693359,1.46484375,0.42724609375,-2.50244140625
1781494021.9031181,0.08738836059570312,-1.763329522705078,9.843760125732421,1.28173828125,0.30517578125,-2.62451171875
1781494021.907118,0.040701428222656245,-1.782483135986328,9.858125335693359,0.79345703125,0.18310546875,-2.62451171875
1781494021.911118,0.04908113403320312,-1.7621324218749999,9.830592016601562,0.79345703125,0.244140625,-2.3193359375
1781494021.915118,0.028730419921875,-1.7741034301757812,9.80066449584961,0.3662109375,0.42724609375,-2.5634765625
1781494021.919118,0.025139117431640625,-1.8028338500976562,9.783905084228515,0.54931640625,0.3662109375,-2.3193359375
1781494021.9231179,0.03591302490234375,-1.8064251525878905,9.763554370117188,0.30517578125,0.42724609375,-2.38037109375
1781494021.9271178,0.034715924072265626,-1.8124106567382812,9.776722479248047,0.67138671875,0.42724609375,-2.38037109375
1781494021.9311178,0.06823474731445311,-1.7788918334960937,9.76116016845703,0.54931640625,0.244140625,-2.25830078125
1781494021.9351177,0.06703764648437499,-1.763329522705078,9.751583361816406,1.40380859375,0.30517578125,-2.01416015625
1781494021.9391177,0.08738836059570312,-1.7094599853515624,9.752780462646484,1.5869140625,0.18310546875,-2.01416015625
1781494021.9431176,0.09457096557617187,-1.6819266662597656,9.764751470947266,2.01416015625,-0.06103515625,-1.8310546875
1781494021.9471176,0.09576806640624999,-1.6615759521484375,9.797073193359374,2.3193359375,-0.244140625,-1.46484375
1781494021.9511175,0.1197100830078125,-1.6448165405273436,9.809044201660155,2.685546875,-0.30517578125,-1.220703125
1781494021.9551175,0.12689268798828124,-1.6424223388671875,9.81263550415039,2.8076171875,-0.54931640625,-1.0986328125
1781494021.9591174,0.17956512451171874,-1.6124948181152343,9.872490545654296,2.9296875,-0.91552734375,-0.8544921875
1781494021.9631174,0.16759411621093748,-1.6340426330566404,9.874884747314452,2.99072265625,-1.15966796875,-0.54931640625
1781494021.9671173,0.19153613281249998,-1.6543933471679686,9.867702142333984,3.41796875,-1.3427734375,-0.79345703125
1781494021.9711173,0.19153613281249998,-1.638831036376953,9.858125335693359,2.86865234375,-1.40380859375,-0.9765625
1781494021.9751172,0.2059013427734375,-1.6903063720703124,9.83178911743164,2.9296875,-1.40380859375,-1.220703125
1781494021.9791172,0.20350714111328125,-1.7405846069335937,9.82580361328125,2.5634765625,-0.8544921875,-1.40380859375
1781494021.983117,0.21787235107421873,-1.7657237243652342,9.805452899169921,2.13623046875,-0.6103515625,-1.64794921875
1781494021.987117,0.22505495605468748,-1.7848773376464844,9.795876092529296,2.25830078125,-0.67138671875,-2.13623046875
1781494021.991117,0.21906945190429686,-1.8160019592285155,9.758765966796874,2.0751953125,-0.244140625,-2.44140625
1781494021.995117,0.1879448303222656,-1.838746875,9.781510882568359,1.52587890625,-0.18310546875,-2.685546875
1781494021.999117,0.201112939453125,-1.8734627990722654,9.76235726928711,1.28173828125,0.1220703125,-2.9296875
1781494022.0031168,0.19871873779296872,-1.8543091857910154,9.767145672607422,1.3427734375,0.30517578125,-3.35693359375
1781494022.0071168,0.16639701538085935,-1.8363526733398436,9.743203656005859,1.15966796875,0.67138671875,-3.7841796875
1781494022.0111167,0.17836802368164062,-1.7992425476074219,9.750386260986328,1.03759765625,0.6103515625,-3.72314453125
1781494022.0151167,0.18555062866210936,-1.7932570434570312,9.78031378173828,1.220703125,0.91552734375,-4.08935546875
1781494022.0191166,0.20949264526367187,-1.7884686401367187,9.782707983398437,1.3427734375,0.732421875,-3.90625
1781494022.0231166,0.18435352783203124,-1.7896657409667969,9.78629928588867,1.220703125,0.54931640625,-3.84521484375
1781494022.0271165,0.17238251953125,-1.7262193969726563,9.801861596679688,1.220703125,0.67138671875,-3.84521484375
1781494022.0311165,0.19153613281249998,-1.7417817077636717,9.79348189086914,1.0986328125,0.3662109375,-3.96728515625
1781494022.0351164,0.1927332336425781,-1.7334020019531249,9.811438403320311,1.03759765625,0.244140625,-3.662109375
1781494022.0391164,0.22505495605468748,-1.7178396911621092,9.80665,0.9765625,0.3662109375,-3.5400390625
1781494022.0431163,0.23702596435546874,-1.7094599853515624,9.817423907470703,0.91552734375,0.18310546875,-3.23486328125
1781494022.0471163,0.28371289672851563,-1.715445489501953,9.852139831542969,0.8544921875,-0.244140625,-2.86865234375
1781494022.0511162,0.30047230834960936,-1.7298106994628906,9.85692823486328,0.9765625,-0.6103515625,-2.62451171875
1781494022.0551162,0.354341845703125,-1.7501614135742187,9.841365924072266,0.9765625,-0.9765625,-2.3193359375
1781494022.0591161,0.3184288208007812,-1.8088193542480469,9.797073193359374,0.91552734375,-1.46484375,-2.0751953125
1781494022.063116,0.30047230834960936,-1.8148048583984373,9.771934075927733,0.8544921875,-1.220703125,-1.89208984375
1781494022.067116,0.2705447875976562,-1.8555062866210936,9.740809454345703,0.48828125,-1.0986328125,-1.5869140625
1781494022.071116,0.239420166015625,-1.8914193115234375,9.698910925292969,0.54931640625,-1.03759765625,-1.52587890625
1781494022.075116,0.24181436767578124,-1.8722656982421875,9.665392102050781,0.6103515625,-0.48828125,-1.64794921875
1781494022.0791159,0.22385785522460935,-1.8698714965820311,9.666589202880859,0.67138671875,0.0,-1.5869140625
1781494022.0831158,0.20949264526367187,-1.867477294921875,9.617508068847656,0.54931640625,0.244140625,-1.708984375
1781494022.0871158,0.22505495605468748,-1.8447323791503905,9.589974749755859,0.91552734375,0.42724609375,-1.89208984375
1781494022.0911157,0.16639701538085935,-1.8447323791503905,9.581595043945311,1.28173828125,0.91552734375,-1.40380859375
1781494022.0951157,0.16879121704101563,-1.8279729675292968,9.586383447265625,1.64794921875,1.220703125,-1.46484375
1781494022.0991156,0.14245499877929688,-1.7872715393066405,9.585186346435547,2.0751953125,1.03759765625,-1.220703125
1781494022.1031156,0.15203180541992187,-1.7836802368164062,9.612719665527344,2.13623046875,1.15966796875,-0.9765625
1781494022.1071155,0.14006079711914063,-1.7417817077636717,9.613916766357422,2.99072265625,1.03759765625,-0.6103515625
1781494022.1111155,0.13646949462890623,-1.7286135986328124,9.689334118652344,3.173828125,0.42724609375,-0.48828125
1781494022.1151154,0.14125789794921875,-1.705868682861328,9.759963067626952,3.35693359375,0.0,-0.244140625
1781494022.1191154,0.15682020874023436,-1.6735469604492186,9.817423907470703,3.41796875,-1.03759765625,0.18310546875
1781494022.1231153,0.16280571289062498,-1.6675614562988281,9.867702142333984,3.7841796875,-1.3427734375,0.3662109375
1781494022.1271152,0.13646949462890623,-1.6843208679199217,9.879673150634765,3.35693359375,-1.77001953125,0.67138671875
1781494022.1311152,0.13407529296874998,-1.6807295654296874,9.87608184814453,3.47900390625,-2.50244140625,0.91552734375
1781494022.1351151,0.13646949462890623,-1.7094599853515624,9.860519537353515,2.99072265625,-2.9296875,0.732421875
1781494022.139115,0.105344873046875,-1.7621324218749999,9.83777462158203,2.74658203125,-3.11279296875,0.67138671875
1781494022.143115,0.13168109130859373,-1.7573440185546874,9.827000714111328,2.38037109375,-3.173828125,0.732421875
1781494022.147115,0.105344873046875,-1.7944541442871094,9.828197814941406,2.0751953125,-3.23486328125,0.3662109375
1781494022.151115,0.12090718383789062,-1.8076222534179687,9.823409411621093,1.8310546875,-3.23486328125,0.244140625
1781494022.155115,0.12330138549804687,-1.7956512451171873,9.815029705810547,1.52587890625,-2.99072265625,0.06103515625
1781494022.1591148,0.12090718383789062,-1.8255787658691405,9.783905084228515,1.40380859375,-2.9296875,-0.3662109375
1781494022.1631148,0.14484920043945312,-1.8315642700195311,9.776722479248047,1.40380859375,-2.62451171875,-0.54931640625
1781494022.1671147,0.15442600708007811,-1.838746875,9.770736975097655,1.52587890625,-2.197265625,-0.67138671875
1781494022.1711147,0.1292868896484375,-1.8327613708496093,9.74200655517578,1.5869140625,-2.01416015625,-0.79345703125
1781494022.1751146,0.1640028137207031,-1.7980454467773437,9.715670336914062,1.708984375,-1.89208984375,-0.67138671875
1781494022.1791146,0.1592144104003906,-1.7597382202148437,9.718064538574218,2.0751953125,-1.3427734375,-0.79345703125
1781494022.1831145,0.17836802368164062,-1.7214309936523438,9.749189160156249,2.01416015625,-1.220703125,-1.0986328125
1781494022.1871145,0.1879448303222656,-1.6807295654296874,9.756371765136718,2.3193359375,-0.8544921875,-1.03759765625
1781494022.1911144,0.20829554443359374,-1.6519991455078125,9.77432827758789,2.50244140625,-1.03759765625,-0.67138671875
1781494022.1951144,0.2346317626953125,-1.5957354064941405,9.781510882568359,2.50244140625,-0.79345703125,-0.3662109375
1781494022.1991143,0.22505495605468748,-1.5945383056640625,9.809044201660155,2.74658203125,-0.8544921875,-0.3662109375
1781494022.2031143,0.2825157958984375,-1.6017209106445311,9.80066449584961,2.685546875,-0.732421875,-0.1220703125
1781494022.2071142,0.2813186950683594,-1.5514426757812498,9.81862100830078,2.5634765625,-0.67138671875,-0.1220703125
1781494022.2111142,0.29568390502929687,-1.543062969970703,9.81862100830078,2.685546875,-0.48828125,0.3662109375
1781494022.215114,0.2920926025390625,-1.5586252807617187,9.823409411621093,2.62451171875,-0.48828125,0.6103515625
1781494022.219114,0.28371289672851563,-1.5969325073242187,9.823409411621093,2.38037109375,-0.6103515625,0.54931640625
1781494022.223114,0.30406361083984373,-1.629254229736328,9.805452899169921,2.25830078125,-0.30517578125,0.48828125
1781494022.227114,0.3124433166503906,-1.6364368347167968,9.80066449584961,2.0751953125,-0.1220703125,0.732421875
1781494022.231114,0.2861070983886719,-1.6843208679199217,9.77432827758789,1.52587890625,0.06103515625,0.48828125
1781494022.2351139,0.26695348510742184,-1.68551796875,9.785102185058593,1.64794921875,0.30517578125,0.54931640625
1781494022.2391138,0.2549824768066406,-1.6843208679199217,9.758765966796874,1.220703125,0.732421875,0.244140625
1781494022.2431138,0.20231004028320312,-1.6735469604492186,9.7683427734375,0.9765625,1.03759765625,0.18310546875
1781494022.2471137,0.19871873779296872,-1.687912170410156,9.743203656005859,0.67138671875,1.40380859375,-0.06103515625
1781494022.2511137,0.23582886352539062,-1.659181750488281,9.724050042724608,0.3662109375,1.89208984375,0.0
1781494022.2551136,0.239420166015625,-1.659181750488281,9.739612353515625,0.42724609375,2.197265625,-0.30517578125
1781494022.2591136,0.24779987182617186,-1.6424223388671875,9.746794958496093,0.3662109375,2.25830078125,0.06103515625
1781494022.2631135,0.22744915771484372,-1.619677423095703,9.758765966796874,0.18310546875,2.44140625,-0.1220703125
1781494022.2671134,0.2262520568847656,-1.5921441040039062,9.751583361816406,0.244140625,2.50244140625,-0.06103515625
1781494022.2711134,0.22744915771484372,-1.5921441040039062,9.757568865966796,0.18310546875,2.50244140625,0.1220703125
1781494022.2751133,0.19991583862304688,-1.5945383056640625,9.770736975097655,0.6103515625,2.3193359375,0.1220703125
1781494022.2791133,0.181959326171875,-1.5550339782714844,9.775525378417969,0.732421875,2.3193359375,0.3662109375
1781494022.2831132,0.17238251953125,-1.5670049865722655,9.769539874267577,0.54931640625,1.8310546875,0.732421875
1781494022.2871132,0.17836802368164062,-1.590947003173828,9.769539874267577,1.03759765625,1.64794921875,0.732421875
1781494022.2911131,0.16879121704101563,-1.6041151123046875,9.78629928588867,0.79345703125,1.40380859375,0.8544921875
1781494022.295113,0.19033903198242186,-1.6017209106445311,9.795876092529296,1.03759765625,1.15966796875,0.8544921875
1781494022.299113,0.2166752502441406,-1.6112977172851561,9.80665,0.79345703125,0.67138671875,1.28173828125
1781494022.303113,0.19871873779296872,-1.6232687255859375,9.811438403320311,0.79345703125,0.06103515625,1.3427734375
1781494022.307113,0.21308394775390624,-1.6352397338867186,9.821015209960937,0.3662109375,0.0,1.0986328125
1781494022.3111129,0.20350714111328125,-1.696291876220703,9.801861596679688,-0.1220703125,0.06103515625,0.8544921875
1781494022.3151128,0.21308394775390624,-1.714248388671875,9.779116680908203,0.0,0.06103515625,0.8544921875
1781494022.3191128,0.19033903198242186,-1.725022296142578,9.76116016845703,-0.244140625,0.0,0.79345703125
1781494022.3231127,0.201112939453125,-1.753752716064453,9.758765966796874,-0.54931640625,0.48828125,0.48828125
1781494022.3271127,0.2166752502441406,-1.7429788085937499,9.74200655517578,-0.91552734375,0.54931640625,0.18310546875
1781494022.3311126,0.23104046020507812,-1.7286135986328124,9.733626849365233,-0.91552734375,0.48828125,0.1220703125
1781494022.3351126,0.2214636535644531,-1.6915034729003906,9.731232647705077,-1.03759765625,1.03759765625,-0.18310546875
1781494022.3391125,0.20470424194335937,-1.7178396911621092,9.732429748535155,-0.9765625,1.0986328125,-0.42724609375
1781494022.3431125,0.21068974609375,-1.6938976745605467,9.738415252685547,-0.8544921875,1.3427734375,-0.42724609375
1781494022.3471124,0.21068974609375,-1.6615759521484375,9.756371765136718,-0.732421875,1.03759765625,-0.3662109375
1781494022.3511124,0.18315642700195311,-1.649604943847656,9.749189160156249,-0.42724609375,1.40380859375,-0.3662109375
1781494022.3551123,0.20949264526367187,-1.6148890197753905,9.739612353515625,-0.3662109375,1.15966796875,-0.6103515625
1781494022.3591123,0.201112939453125,-1.62805712890625,9.734823950195311,-0.06103515625,1.40380859375,-0.18310546875
1781494022.3631122,0.239420166015625,-1.610100616455078,9.758765966796874,0.0,0.9765625,0.0
1781494022.3671122,0.2346317626953125,-1.562216583251953,9.78031378173828,0.1220703125,0.79345703125,0.244140625
1781494022.371112,0.23582886352539062,-1.5646107849121094,9.78629928588867,0.30517578125,0.48828125,0.30517578125
1781494022.375112,0.2262520568847656,-1.5574281799316405,9.781510882568359,0.18310546875,0.48828125,0.732421875
1781494022.379112,0.25737667846679685,-1.5837643981933593,9.79946739501953,-0.06103515625,-0.06103515625,0.91552734375
1781494022.383112,0.25258827514648435,-1.600523809814453,9.829394915771484,-0.30517578125,-0.1220703125,0.9765625
1781494022.387112,0.22505495605468748,-1.6172832214355468,9.821015209960937,-0.30517578125,-0.30517578125,0.9765625
1781494022.3911119,0.2454056701660156,-1.6424223388671875,9.81862100830078,-0.54931640625,-0.54931640625,1.3427734375
1781494022.3951118,0.2346317626953125,-1.637633935546875,9.815029705810547,-0.6103515625,-0.42724609375,1.03759765625
1781494022.3991117,0.21428104858398436,-1.675941162109375,9.816226806640625,-0.79345703125,-0.6103515625,0.9765625
1781494022.4031117,0.26815058593749996,-1.6819266662597656,9.804255798339844,-1.03759765625,-0.3662109375,0.732421875
1781494022.4071116,0.25737667846679685,-1.6927005737304686,9.809044201660155,-0.9765625,-0.30517578125,0.732421875
1781494022.4111116,0.25258827514648435,-1.6651672546386718,9.811438403320311,-1.15966796875,-0.1220703125,0.48828125
1781494022.4151115,0.25737667846679685,-1.686715069580078,9.794678991699218,-1.46484375,0.0,0.30517578125
1781494022.4191115,0.2765302917480469,-1.6795324645996093,9.804255798339844,-1.40380859375,0.244140625,0.0
1781494022.4231114,0.2561795776367187,-1.6795324645996093,9.776722479248047,-1.220703125,0.67138671875,-0.18310546875
1781494022.4271114,0.24899697265624998,-1.6735469604492186,9.763554370117188,-1.03759765625,0.8544921875,-0.42724609375
1781494022.4311113,0.258573779296875,-1.6424223388671875,9.750386260986328,-0.79345703125,1.0986328125,-0.6103515625
1781494022.4351113,0.2645592834472656,-1.649604943847656,9.731232647705077,-0.42724609375,1.52587890625,-0.67138671875
1781494022.4391112,0.24061726684570311,-1.6364368347167968,9.725247143554688,-0.3662109375,1.5869140625,-0.8544921875
1781494022.4431112,0.24301146850585936,-1.6244658264160154,9.702502227783203,-0.1220703125,1.89208984375,-0.91552734375
1781494022.4471111,0.2597708801269531,-1.6304513305664061,9.733626849365233,-0.1220703125,2.0751953125,-0.91552734375
1781494022.451111,0.23702596435546874,-1.6017209106445311,9.728838446044922,0.1220703125,2.01416015625,-0.8544921875
1781494022.455111,0.23223756103515625,-1.5945383056640625,9.74799205932617,-0.06103515625,1.953125,-0.732421875
1781494022.459111,0.22026655273437498,-1.6041151123046875,9.746794958496093,0.06103515625,2.01416015625,-0.732421875
1781494022.463111,0.1927332336425781,-1.5933412048339843,9.794678991699218,-0.3662109375,1.708984375,-0.732421875
1781494022.4671109,0.17238251953125,-1.5861585998535155,9.798270294189452,-0.48828125,1.5869140625,-0.54931640625
1781494022.4711108,0.1484405029296875,-1.5729904907226562,9.79946739501953,-0.732421875,1.52587890625,-0.244140625
1781494022.4751108,0.14125789794921875,-1.5598223815917969,9.801861596679688,-1.28173828125,1.220703125,-0.18310546875
1781494022.4791107,0.12808978881835936,-1.5394716674804687,9.832986218261718,-1.52587890625,1.03759765625,-0.30517578125
1781494022.4831107,0.12689268798828124,-1.5490484741210937,9.827000714111328,-1.953125,0.79345703125,-0.1220703125
1781494022.4871106,0.12210428466796874,-1.5538368774414062,9.801861596679688,-2.3193359375,0.42724609375,0.244140625
1781494022.4911106,0.12569558715820311,-1.5574281799316405,9.78629928588867,-2.685546875,0.48828125,0.48828125
1781494022.4951105,0.11372457885742186,-1.5275006591796874,9.776722479248047,-2.9296875,0.06103515625,0.79345703125
1781494022.4991105,0.12808978881835936,-1.5478513732910155,9.749189160156249,-3.35693359375,-0.1220703125,0.79345703125
1781494022.5031104,0.12330138549804687,-1.5550339782714844,9.737218151855469,-3.84521484375,-0.1220703125,0.79345703125
1781494022.5071104,0.10654197387695312,-1.5215151550292967,9.720458740234374,-3.84521484375,-0.244140625,0.732421875
1781494022.5111103,0.09935936889648436,-1.5358803649902344,9.692925421142577,-3.662109375,-0.18310546875,1.28173828125
1781494022.5151103,0.12449848632812499,-1.5394716674804687,9.667786303710937,-3.90625,-0.42724609375,1.40380859375
1781494022.5191102,0.143652099609375,-1.5310919616699217,9.666589202880859,-4.08935546875,-0.54931640625,1.46484375
1781494022.5231102,0.1927332336425781,-1.5394716674804687,9.667786303710937,-4.2724609375,-0.8544921875,1.5869140625
1781494022.52711,0.16041151123046873,-1.5466542724609373,9.668983404541015,-4.33349609375,-0.48828125,1.77001953125
1781494022.53111,0.17357962036132812,-1.5574281799316405,9.664195001220703,-4.21142578125,-0.79345703125,1.708984375
1781494022.53511,0.16879121704101563,-1.6208745239257811,9.648632690429688,-4.57763671875,-1.03759765625,1.8310546875
1781494022.53911,0.14125789794921875,-1.6412252380371093,9.67137760620117,-4.45556640625,-1.28173828125,1.77001953125
1781494022.54311,0.1640028137207031,-1.6986860778808592,9.668983404541015,-4.638671875,-1.5869140625,1.708984375
1781494022.5471098,0.18914193115234373,-1.6651672546386718,9.679757312011718,-4.638671875,-1.8310546875,1.64794921875
1781494022.5511098,0.17357962036132812,-1.7214309936523438,9.680954412841796,-5.18798828125,-1.953125,1.40380859375
1781494022.5551097,0.17118541870117188,-1.7465701110839842,9.658209497070311,-5.43212890625,-1.953125,1.3427734375
1781494022.5591097,0.1592144104003906,-1.7561469177246092,9.64623848876953,-5.9814453125,-2.197265625,1.0986328125
1781494022.5631096,0.143652099609375,-1.7525556152343749,9.65342109375,-6.40869140625,-2.01416015625,0.9765625
1781494022.5671096,0.143652099609375,-1.7896657409667969,9.664195001220703,-6.89697265625,-2.0751953125,0.6103515625
1781494022.5711095,0.1771709228515625,-1.8124106567382812,9.683348614501952,-7.14111328125,-2.13623046875,0.30517578125
1781494022.5751095,0.1867477294921875,-1.8267758666992187,9.679757312011718,-7.8125,-2.25830078125,0.06103515625
1781494022.5791094,0.20231004028320312,-1.8351555725097655,9.676166009521484,-8.30078125,-2.38037109375,-0.3662109375
1781494022.5831094,0.21906945190429686,-1.8255787658691405,9.686939916992188,-8.6669921875,-2.197265625,-0.48828125
1781494022.5871093,0.23104046020507812,-1.8255787658691405,9.655815295410155,-9.1552734375,-2.0751953125,-0.54931640625
1781494022.5911093,0.25139117431640623,-1.8351555725097655,9.665392102050781,-9.521484375,-1.953125,-0.79345703125
1781494022.5951092,0.21906945190429686,-1.8614917907714843,9.654618194580078,-9.6435546875,-2.01416015625,-0.8544921875
1781494022.5991092,0.24899697265624998,-1.8471265808105468,9.647435589599608,-9.82666015625,-1.953125,-0.67138671875
1781494022.6031091,0.258573779296875,-1.8519149841308593,9.674968908691406,-9.94873046875,-2.13623046875,-0.8544921875
1781494022.607109,0.24181436767578124,-1.8459294799804686,9.683348614501952,-10.1318359375,-2.197265625,-0.6103515625
1781494022.611109,0.26216508178710934,-1.849520782470703,9.68454571533203,-9.8876953125,-2.25830078125,-0.67138671875
1781494022.615109,0.25139117431640623,-1.8543091857910154,9.6917283203125,-9.70458984375,-2.01416015625,-0.8544921875
1781494022.619109,0.2166752502441406,-1.859097589111328,9.690531219482422,-9.58251953125,-2.197265625,-0.67138671875
1781494022.6231089,0.23702596435546874,-1.85790048828125,9.712079034423828,-9.3994140625,-2.13623046875,-0.18310546875
1781494022.6271088,0.2454056701660156,-1.8626888916015625,9.713276135253906,-8.9111328125,-2.50244140625,-0.244140625
1781494022.6311088,0.24779987182617186,-1.886630908203125,9.725247143554688,-8.72802734375,-1.953125,-0.06103515625
1781494022.6351087,0.23223756103515625,-1.8722656982421875,9.775525378417969,-8.23974609375,-2.38037109375,-0.30517578125
1781494022.6391087,0.2705447875976562,-1.8471265808105468,9.798270294189452,-7.87353515625,-2.01416015625,-0.06103515625
1781494022.6431086,0.22744915771484372,-1.867477294921875,9.821015209960937,-7.32421875,-2.38037109375,-0.244140625
1781494022.6471086,0.28012159423828126,-1.889025109863281,9.836577520751952,-6.9580078125,-2.197265625,-0.244140625
1781494022.6511085,0.2813186950683594,-1.8806454040527343,9.852139831542969,-6.591796875,-2.38037109375,-0.06103515625
1781494022.6551085,0.296881005859375,-1.9009961181640624,9.87727894897461,-5.92041015625,-2.38037109375,0.1220703125
1781494022.6591084,0.2454056701660156,-1.8854338073730468,9.897629663085937,-5.7373046875,-2.25830078125,0.18310546875
1781494022.6631083,0.2597708801269531,-1.8950106140136718,9.897629663085937,-5.18798828125,-2.197265625,0.1220703125
1781494022.6671083,0.25737667846679685,-1.9129671264648436,9.891644158935547,-4.5166015625,-2.38037109375,0.0
1781494022.6711082,0.28490999755859375,-1.944091748046875,9.90241806640625,-3.96728515625,-2.38037109375,-0.244140625
1781494022.6751082,0.2885013000488281,-1.9393033447265624,9.903615167236328,-3.23486328125,-2.13623046875,-0.18310546875
1781494022.6791081,0.2861070983886719,-1.9704279663085937,9.880870251464843,-3.0517578125,-2.38037109375,-0.244140625
1781494022.683108,0.2693476867675781,-2.0063409912109376,9.898826763916015,-2.50244140625,-2.197265625,-0.3662109375
1781494022.687108,0.27174188842773433,-2.019509100341797,9.898826763916015,-2.3193359375,-2.0751953125,-0.48828125
1781494022.691108,0.2885013000488281,-2.0302830078125,9.898826763916015,-1.708984375,-2.197265625,-0.732421875
1781494022.695108,0.27892449340820313,-2.031480108642578,9.888052856445311,-1.46484375,-1.89208984375,-0.91552734375
1781494022.699108,0.2765302917480469,-2.0542250244140625,9.86411083984375,-1.03759765625,-2.0751953125,-1.220703125
1781494022.7031078,0.29448680419921874,-2.0733786376953125,9.871293444824218,-0.79345703125,-1.8310546875,-1.220703125
1781494022.7071078,0.2813186950683594,-2.096123553466797,9.882067352294921,-0.54931640625,-1.708984375,-1.46484375
1781494022.7111077,0.30406361083984373,-2.098517755126953,9.874884747314452,-0.244140625,-1.953125,-1.89208984375
1781494022.7151077,0.27174188842773433,-2.1128829650878904,9.842563024902343,0.0,-1.77001953125,-2.0751953125
1781494022.7191076,0.26695348510742184,-2.138022082519531,9.81263550415039,0.18310546875,-1.708984375,-2.50244140625
1781494022.7231076,0.26695348510742184,-2.128445275878906,9.781510882568359,0.244140625,-1.28173828125,-2.5634765625
1781494022.7271075,0.25258827514648435,-2.1224597717285154,9.763554370117188,0.67138671875,-1.0986328125,-2.9296875
1781494022.7311075,0.23822306518554687,-2.117671368408203,9.728838446044922,0.8544921875,-0.6103515625,-2.86865234375
1781494022.7351074,0.2454056701660156,-2.1224597717285154,9.706093530273437,1.15966796875,-0.79345703125,-3.47900390625
1781494022.7391074,0.21428104858398436,-2.094926452636719,9.713276135253906,1.5869140625,-0.54931640625,-3.23486328125
1781494022.7431073,0.21308394775390624,-2.104503259277344,9.704896429443359,1.8310546875,-0.30517578125,-3.5400390625
1781494022.7471073,0.1867477294921875,-2.0829554443359375,9.694122521972655,2.0751953125,-0.3662109375,-3.72314453125
1781494022.7511072,0.19871873779296872,-2.0733786376953125,9.70968483276367,2.44140625,-0.1220703125,-3.41796875
1781494022.7551072,0.20350714111328125,-2.068590234375,9.73602105102539,2.25830078125,-0.18310546875,-3.96728515625
1781494022.759107,0.20350714111328125,-2.080561242675781,9.734823950195311,2.685546875,-0.30517578125,-3.7841796875
1781494022.763107,0.20709844360351562,-2.070984436035156,9.720458740234374,2.74658203125,-0.48828125,-3.41796875
1781494022.767107,0.17118541870117188,-2.033874310302734,9.719261639404296,2.86865234375,-0.3662109375,-3.35693359375
1781494022.771107,0.16519991455078123,-2.0542250244140625,9.68454571533203,3.0517578125,-0.6103515625,-3.2958984375
1781494022.775107,0.14125789794921875,-2.062604730224609,9.6917283203125,2.74658203125,-0.6103515625,-3.0517578125
1781494022.7791069,0.15322890625,-2.053027923583984,9.682151513671874,2.50244140625,-0.6103515625,-2.9296875
1781494022.7831068,0.15083470458984374,-2.051830822753906,9.6917283203125,2.62451171875,-0.732421875,-2.5634765625
1781494022.7871068,0.1197100830078125,-2.000355487060547,9.700108026123047,2.13623046875,-0.732421875,-2.5634765625
1781494022.7911067,0.14125789794921875,-2.013523596191406,9.710881933593749,1.8310546875,-0.6103515625,-2.13623046875
1781494022.7951066,0.10654197387695312,-2.019509100341797,9.732429748535155,1.52587890625,-1.15966796875,-2.01416015625
1781494022.7991066,0.08499415893554688,-2.0183119995117185,9.710881933593749,1.46484375,-0.8544921875,-1.5869140625
1781494022.8031065,0.07062894897460938,-2.0075380920410155,9.70369932861328,0.9765625,-1.220703125,-1.28173828125
1781494022.8071065,0.07900865478515624,-2.0087351928710935,9.685742816162108,1.03759765625,-0.91552734375,-0.732421875
1781494022.8111064,0.08140285644531249,-2.013523596191406,9.692925421142577,0.8544921875,-1.220703125,-0.48828125
1781494022.8151064,0.062249243164062495,-1.9596540588378906,9.682151513671874,0.42724609375,-1.03759765625,0.0
1781494022.8191063,0.08140285644531249,-1.9405004455566406,9.67137760620117,0.54931640625,-1.3427734375,0.42724609375
1781494022.8231063,0.10654197387695312,-1.9656395629882812,9.65940659790039,0.48828125,-1.40380859375,0.9765625
1781494022.8271062,0.0909796630859375,-1.897404815673828,9.680954412841796,0.732421875,-1.8310546875,1.46484375
1781494022.8311062,0.09337386474609374,-1.886630908203125,9.685742816162108,0.79345703125,-2.01416015625,2.01416015625
1781494022.8351061,0.1149216796875,-1.867477294921875,9.706093530273437,0.9765625,-2.13623046875,2.62451171875
1781494022.839106,0.10773907470703124,-1.8375497741699218,9.728838446044922,0.8544921875,-2.62451171875,2.86865234375
1781494022.843106,0.1149216796875,-1.8315642700195311,9.725247143554688,0.8544921875,-2.9296875,3.35693359375
1781494022.847106,0.11013327636718749,-1.8638859924316404,9.744400756835937,0.91552734375,-3.23486328125,4.150390625
1781494022.851106,0.12330138549804687,-1.8543091857910154,9.76235726928711,0.79345703125,-3.72314453125,4.33349609375
