timestamp,acc_x,acc_y,acc_z,gyro_x,gyro_y,gyro_z
1780627011.5098972,1.2485761657714842,-10.292672937011718,0.09576806640624999,9.3994140625,6.103515625,6.2255859375
1780627011.51187,1.3527239379882812,-10.309432348632813,0.062249243164062495,10.1318359375,6.9580078125,6.591796875
1780627011.515672,1.4820108276367188,-10.377667095947265,-0.00718260498046875,12.02392578125,6.591796875,7.26318359375
1780627011.519672,1.5562310791015623,-10.232817895507813,-0.010773907470703125,13.427734375,7.26318359375,7.50732421875
1780627011.5236719,1.5729904907226562,-10.079588989257813,0.08259995727539061,13.97705078125,9.09423828125,7.9345703125
1780627011.5276718,1.6208745239257811,-10.024522351074218,0.1879448303222656,15.380859375,10.498046875,8.11767578125
1780627011.5316718,1.6424223388671875,-9.886855755615233,0.36272155151367186,15.380859375,11.53564453125,8.11767578125
1780627011.5356717,1.6579846496582031,-9.744400756835937,0.5410895751953124,15.625,12.20703125,7.568359375
1780627011.5396717,1.6400281372070311,-9.588777648925781,0.6787561706542968,15.56396484375,12.14599609375,7.2021484375
1780627011.5436716,1.619677423095703,-9.482235675048827,0.7625532287597656,15.9912109375,11.77978515625,7.01904296875
1780627011.5476716,1.581370196533203,-9.332598071289063,0.7541735229492187,15.380859375,11.8408203125,6.7138671875
1780627011.5516715,1.5382745666503905,-9.216479290771483,0.7362170104980469,14.6484375,11.53564453125,6.9580078125
1780627011.5556715,1.4963760375976562,-9.095572106933593,0.7266402038574218,14.22119140625,12.451171875,6.65283203125
1780627011.5596714,1.4472949035644531,-9.018957653808593,0.7433996154785156,13.671875,13.12255859375,6.34765625
1780627011.5636714,1.426944189453125,-8.985438830566405,0.7673416320800781,13.36669921875,13.73291015625,5.79833984375
1780627011.5676713,1.3455413330078123,-8.947131604003905,0.7900865478515624,12.5732421875,13.73291015625,5.0048828125
1780627011.5716712,1.2593500732421874,-8.878896856689453,0.814028564453125,11.5966796875,14.16015625,3.72314453125
1780627011.5756712,1.1252747802734375,-8.826224420166016,0.8511386901855468,10.19287109375,14.09912109375,2.3193359375
1780627011.5796711,0.9983820922851562,-8.789114294433594,0.8990227233886718,8.85009765625,14.0380859375,0.8544921875
1780627011.583671,0.8463502868652343,-8.716091143798828,0.9504980590820312,6.77490234375,14.0380859375,-0.6103515625
1780627011.587671,0.6596025573730468,-8.640673791503906,0.9804255798339843,5.4931640625,12.939453125,-1.5869140625
1780627011.591671,0.4525041137695312,-8.558073834228516,1.0390835205078124,4.7607421875,11.8408203125,-1.8310546875
1780627011.595671,0.3459621398925781,-8.566453540039062,1.1228805786132812,2.5634765625,11.04736328125,-1.8310546875
1780627011.599671,0.38187516479492184,-8.645462194824217,1.2521674682617188,1.3427734375,8.30078125,-2.13623046875
1780627011.6036708,0.17118541870117188,-8.56166513671875,1.341950030517578,-0.1220703125,6.2255859375,-1.5869140625
1780627011.6076708,0.09935936889648436,-8.546102825927735,1.3215993164062498,-1.40380859375,4.638671875,-0.9765625
1780627011.6116707,0.08259995727539061,-8.671798413085938,1.2413935607910156,-5.126953125,7.01904296875,0.48828125
1780627011.6156707,0.17357962036132812,-8.657433203124999,1.284489190673828,-3.173828125,-0.48828125,0.9765625
1780627011.6196706,0.13407529296874998,-8.641870892333984,1.1133037719726562,-5.37109375,-1.5869140625,1.40380859375
1780627011.6236706,0.3794809631347656,-8.954314208984375,0.9792284790039062,-6.9580078125,-4.08935546875,1.03759765625
1780627011.6276705,0.47884033203125,-9.153032946777342,0.9995791931152344,-7.568359375,-5.9814453125,1.3427734375
1780627011.6316705,0.5087678527832031,-9.032125762939453,0.8128314636230468,-9.521484375,-6.2255859375,2.197265625
1780627011.6356704,0.46208092041015625,-9.345766180419922,0.8128314636230468,-8.6669921875,-7.6904296875,3.5400390625
1780627011.6396704,0.3687070556640625,-9.343371978759764,0.5817910034179687,-7.87353515625,-6.9580078125,5.4931640625
1780627011.6436703,0.4572925170898437,-9.393650213623046,0.5602431884765625,-8.4228515625,-6.34765625,6.8359375
1780627011.6476703,0.6488286499023437,-9.567229833984374,0.6572083557128906,-7.38525390625,-7.568359375,7.75146484375
1780627011.6516702,0.8607154968261719,-9.712079034423828,0.8954314208984374,-7.4462890625,-11.04736328125,7.8125
1780627011.6556702,0.8667010009765624,-9.78629928588867,0.9217676391601562,-6.40869140625,-11.77978515625,6.7138671875
1780627011.65967,0.9097966308593749,-9.83897172241211,0.7924807495117187,-6.103515625,-11.8408203125,4.82177734375
1780627011.66367,0.8978256225585937,-9.886855755615233,0.6081272216796875,-5.79833984375,-10.55908203125,2.50244140625
1780627011.66767,0.9744400756835937,-9.962273107910155,0.5434837768554687,-5.06591796875,-9.58251953125,-0.244140625
1780627011.67167,1.1420341918945311,-10.058041174316406,0.6679822631835937,-5.0048828125,-10.009765625,-3.662109375
1780627011.67567,1.2030863342285156,-10.105925207519531,0.8894459167480468,-4.2724609375,-11.04736328125,-6.65283203125
1780627011.6796699,1.2378022583007813,-9.989806427001952,0.8846575134277344,-2.50244140625,-11.8408203125,-12.26806640625
1780627011.6836698,1.2808978881835937,-9.909600671386718,0.6643909606933593,-2.44140625,-10.80322265625,-14.2822265625
1780627011.6876698,1.3670891479492187,-10.01015714111328,0.5853823059082031,-2.5634765625,-9.94873046875,-16.11328125
1780627011.6916697,1.4592659118652342,-10.000580334472655,0.7110778930664062,-2.685546875,-9.765625,-17.4560546875
1780627011.6956697,1.5310919616699217,-10.040084661865233,0.9313444458007812,-2.50244140625,-10.009765625,-17.88330078125
1780627011.6996696,1.5406687683105469,-10.01015714111328,1.0558429321289062,-1.64794921875,-10.009765625,-17.63916015625
1780627011.7036695,1.5358803649902344,-9.989806427001952,0.9876081848144531,-0.9765625,-9.70458984375,-16.2353515625
1780627011.7076695,1.4532804077148436,-9.934739788818359,0.8702923034667969,-0.30517578125,-8.85009765625,-14.46533203125
1780627011.7116694,1.466448516845703,-9.92755718383789,0.7817068420410156,-0.1220703125,-7.9345703125,-12.51220703125
1780627011.7156694,1.5478513732910155,-9.94671079711914,0.7625532287597656,0.54931640625,-7.32421875,-10.31494140625
1780627011.7196693,1.6304513305664061,-10.049661468505859,0.7457938171386719,1.3427734375,-7.50732421875,-9.1552734375
1780627011.7236693,1.6328455322265625,-10.133458526611328,0.4836287353515625,1.5869140625,-6.89697265625,-7.9345703125
1780627011.7276692,1.514332550048828,-10.26035121459961,0.33399113159179683,2.01416015625,-6.34765625,-7.080078125
1780627011.7316692,1.466448516845703,-10.50815108642578,0.19632453613281248,1.5869140625,-5.55419921875,-6.28662109375
1780627011.7356691,1.2856862915039062,-10.67454810180664,0.062249243164062495,2.50244140625,-4.08935546875,-5.859375
1780627011.739669,1.284489190673828,-10.687716210937499,0.2166752502441406,5.0048828125,-3.41796875,-5.18798828125
1780627011.743669,1.2629413757324217,-10.629058270263672,0.36272155151367186,6.53076171875,-3.2958984375,-4.45556640625
1780627011.747669,1.2294225524902342,-10.682927807617187,0.20829554443359374,7.99560546875,-4.33349609375,-4.150390625
1780627011.751669,1.2617442749023438,-10.685322009277343,0.010773907470703125,8.7890625,-4.69970703125,-4.21142578125
1780627011.7556689,1.2078747375488281,-10.625466967773438,-0.013168109130859374,9.21630859375,-4.21142578125,-4.638671875
1780627011.7596688,1.2497732666015624,-10.629058270263672,-0.015562310791015624,10.6201171875,-3.35693359375,-5.31005859375
1780627011.7636688,1.2174515441894531,-10.612298858642578,-0.04908113403320312,11.77978515625,-2.5634765625,-5.9814453125
1780627011.7676687,1.20667763671875,-10.542867010498046,-0.08858546142578125,12.14599609375,-2.86865234375,-6.2255859375
1780627011.7716687,1.1324573852539062,-10.454281549072265,0.03950432739257812,12.6953125,-3.0517578125,-6.65283203125
1780627011.7756686,1.0043675964355467,-10.359710583496094,0.15083470458984374,13.427734375,-2.86865234375,-6.2255859375
1780627011.7796686,0.9145850341796874,-10.341754071044921,0.2609679809570312,14.5263671875,-3.11279296875,-5.2490234375
1780627011.7836685,0.8200140686035156,-10.274716424560546,0.3064578125,14.95361328125,-3.35693359375,-4.2724609375
1780627011.7876685,0.8176198669433593,-10.200496173095702,0.4010287780761719,15.44189453125,-3.7841796875,-2.8076171875
1780627011.7916684,0.8212111694335937,-10.187328063964843,0.5770026000976562,16.17431640625,-4.638671875,-1.77001953125
1780627011.7956684,0.8882488159179687,-10.20887587890625,0.6727706665039062,16.6015625,-5.67626953125,-0.67138671875
1780627011.7996683,0.9181763366699218,-10.289081634521484,0.7864952453613281,16.7236328125,-6.591796875,-0.244140625
1780627011.8036683,0.9696516723632812,-10.328585961914062,0.8774749084472656,16.845703125,-7.62939453125,0.0
1780627011.8076682,1.005564697265625,-10.396820709228516,0.8702923034667969,17.2119140625,-7.62939453125,-0.54931640625
1780627011.8116682,1.0235212097167967,-10.43153663330078,0.8559270935058593,17.39501953125,-7.50732421875,-0.732421875
1780627011.815668,1.054645831298828,-10.43153663330078,0.8355763793945312,17.578125,-7.14111328125,-1.28173828125
1780627011.819668,1.035492218017578,-10.383652600097655,0.8750807067871094,17.9443359375,-6.4697265625,-1.953125
1780627011.823668,1.0402806213378906,-10.359710583496094,0.8954314208984374,18.12744140625,-7.080078125,-2.25830078125
1780627011.827668,1.0211270080566406,-10.296264239501953,0.9504980590820312,18.798828125,-7.568359375,-2.5634765625
1780627011.831668,1.024718310546875,-10.20887587890625,0.9361328491210937,19.4091796875,-8.23974609375,-2.9296875
1780627011.8356678,0.9971849914550781,-10.137049829101562,0.8798691101074219,20.44677734375,-8.60595703125,-2.685546875
1780627011.8396678,1.0103531005859374,-10.032902056884765,0.8547299926757812,20.751953125,-8.85009765625,-2.86865234375
1780627011.8436677,1.024718310546875,-9.97783541870117,0.8415618835449218,21.42333984375,-9.3994140625,-2.8076171875
1780627011.8476677,1.0330980163574217,-9.8449572265625,0.8092401611328125,21.78955078125,-9.21630859375,-2.86865234375
1780627011.8516676,1.0606313354492187,-9.758765966796874,0.8224082702636718,22.39990234375,-9.27734375,-2.74658203125
1780627011.8556676,1.0989385620117187,-9.654618194580078,0.9038111267089843,23.01025390625,-9.21630859375,-2.8076171875
1780627011.8596675,1.1659762084960936,-9.50617769165039,1.0019733947753906,23.13232421875,-9.46044921875,-2.685546875
1780627011.8636675,1.2138602416992186,-9.330203869628905,1.0953472595214844,23.0712890625,-9.70458984375,-2.62451171875
1780627011.8676674,1.3168109130859373,-9.151835845947264,1.177947216796875,23.25439453125,-9.82666015625,-2.50244140625
1780627011.8716674,1.5263035583496092,-8.960299713134765,1.3180080139160155,22.88818359375,-10.6201171875,-2.3193359375
1780627011.8756673,1.7884686401367187,-8.708908538818358,1.4520833068847656,22.27783203125,-10.7421875,-2.01416015625
1780627011.8796673,2.1823148132324217,-8.440757952880858,1.6148890197753905,21.66748046875,-11.1083984375,-1.8310546875
1780627011.8836672,2.5821464904785154,-8.122329132080077,1.7693150268554687,20.69091796875,-11.23046875,-1.64794921875
1780627011.8876672,3.068169427490234,-7.8541785461425775,1.8363526733398436,18.5546875,-10.43701171875,-1.220703125
1780627011.8916671,3.4775779113769527,-7.588422161865234,1.8746598999023436,16.4794921875,-9.09423828125,-0.8544921875
1780627011.895667,3.756502404785156,-7.353790399169921,1.8243816650390623,13.85498046875,-6.40869140625,-0.91552734375
1780627011.899667,3.8941690002441405,-7.070077502441406,1.7609353210449217,11.41357421875,-2.44140625,-0.6103515625
1780627011.903667,3.7720647155761715,-6.7839704040527335,1.6651672546386718,8.23974609375,1.8310546875,-1.0986328125
1780627011.907667,3.535038751220703,-6.6271501953125,1.552639776611328,4.82177734375,6.28662109375,-1.8310546875
1780627011.9116669,3.1316157714843746,-6.636727001953124,1.4724340209960938,0.06103515625,10.07080078125,-3.173828125
1780627011.9156668,2.6850971618652344,-6.700173345947265,1.4832079284667967,-4.5166015625,11.90185546875,-5.126953125
1780627011.9196668,2.2685060729980466,-6.8593877563476555,1.5382745666503905,-8.1787109375,11.8408203125,-7.14111328125
1780627011.9236667,1.820790362548828,-7.100005023193359,1.6148890197753905,-11.29150390625,10.25390625,-8.48388671875
1780627011.9276667,1.3359645263671873,-7.320271575927734,1.5370774658203123,-14.7705078125,9.033203125,-9.21630859375
1780627011.9316666,0.8391676818847655,-7.50821640625,1.2222399475097656,-17.51708984375,7.568359375,-8.056640625
1780627011.9356666,0.5087678527832031,-7.64827720336914,1.2378022583007813,-18.37158203125,6.28662109375,-5.859375
1780627011.9396665,0.20949264526367187,-7.6997525390625,1.3108254089355469,-19.1650390625,5.9814453125,-2.5634765625
1780627011.9436665,-0.08259995727539061,-8.303091357421874,1.2425906616210938,-20.5078125,5.0048828125,1.708984375
1780627011.9476664,-0.2825157958984375,-9.154230047607422,1.2617442749023438,-21.8505859375,2.9296875,6.103515625
1780627011.9516664,-0.277727392578125,-9.941922393798828,1.4808137268066406,-23.193359375,0.1220703125,9.765625
1780627011.9556663,-0.22026655273437498,-10.35492218017578,1.7645266235351562,-21.3623046875,-3.5400390625,12.8173828125
1780627011.9596663,-0.32920272827148434,-10.90439146118164,1.6903063720703124,-19.53125,-7.6904296875,14.95361328125
1780627011.9636662,-0.3172317199707031,-11.416750616455078,1.4820108276367188,-17.88330078125,-10.986328125,17.578125
1780627011.9676661,-0.06584054565429687,-11.44069263305664,1.3299790222167969,-15.7470703125,-13.97705078125,19.10400390625
1780627011.971666,0.2920926025390625,-11.2240173828125,1.1791443176269532,-12.75634765625,-16.17431640625,19.53125
1780627011.975666,0.5027823486328125,-10.939107385253905,0.86191259765625,-10.009765625,-18.37158203125,19.775390625
1780627011.979666,0.565031591796875,-10.565611926269531,0.45489831542968745,-8.6669921875,-19.22607421875,19.95849609375
1780627011.983666,0.6117185241699218,-10.228029492187499,0.30526071166992186,-8.11767578125,-19.47021484375,19.47021484375
1780627011.987666,0.6775590698242188,-9.873687646484374,0.35194764404296874,-7.38525390625,-19.22607421875,18.24951171875
1780627011.9916658,0.7769184387207031,-9.657012396240233,0.5147533569335937,-6.65283203125,-20.3857421875,16.78466796875
1780627011.9956658,0.8080430603027343,-9.459490759277344,0.6440402465820312,-7.080078125,-22.27783203125,15.13671875
1780627011.9996657,0.7781155395507812,-9.327809667968749,0.7637503295898437,-7.9345703125,-24.2919921875,13.12255859375
1780627012.0036657,0.7661445312499999,-9.247603912353515,0.8774749084472656,-8.36181640625,-25.7568359375,11.16943359375
1780627012.0076656,0.7661445312499999,-9.327809667968749,0.9564835632324218,-8.6669921875,-26.7333984375,9.09423828125
1780627012.0116656,0.7146691955566405,-9.406818322753905,0.9612719665527343,-9.58251953125,-27.587890625,6.7138671875
1780627012.0156655,0.6284779357910156,-9.44871685180664,0.9097966308593749,-10.19287109375,-28.6865234375,5.4931640625
1780627012.0196655,0.5626373901367188,-9.284714038085937,1.0307038146972656,-11.29150390625,-29.35791015625,4.94384765625
1780627012.0236654,0.6380547424316406,-9.552864624023437,1.2174515441894531,-10.7421875,-30.70068359375,3.5400390625
1780627012.0276654,0.6464344482421874,-9.557653027343749,1.2150573425292968,-10.55908203125,-31.43310546875,1.64794921875
1780627012.0316653,0.7517793212890624,-9.570821136474608,1.1468225952148436,-11.16943359375,-33.26416015625,0.06103515625
1780627012.0356653,1.3251906188964844,-9.252392315673827,1.9776105712890624,-12.63427734375,-36.56005859375,-0.244140625
1780627012.0396652,1.254561669921875,-8.717288244628906,1.9979612854003905,-20.69091796875,-34.0576171875,2.0751953125
1780627012.0436652,1.4137760803222656,-9.17458076171875,1.0510545288085937,-20.81298828125,-31.06689453125,1.77001953125
1780627012.047665,1.5777788940429687,-8.935160595703124,0.604535919189453,-21.6064453125,-21.17919921875,-0.18310546875
1780627012.051665,2.108094561767578,-9.004592443847656,1.0199299072265624,-24.23095703125,-14.09912109375,-3.23486328125
1780627012.055665,2.5258827514648434,-9.6917283203125,1.0678139404296874,-20.751953125,-15.44189453125,-6.89697265625
1780627012.059665,2.454056701660156,-9.251195214843749,0.40581718139648437,-24.23095703125,-16.78466796875,-7.38525390625
1780627012.063665,1.7298106994628906,-8.79150849609375,0.025139117431640625,-26.9775390625,-9.521484375,-3.84521484375
1780627012.0676649,1.140837091064453,-8.86812294921875,-0.6392518432617187,-28.25927734375,3.23486328125,0.0
1780627012.0716648,1.7764976318359373,-9.205705383300781,0.009576806640625,-21.484375,4.2724609375,5.06591796875
1780627012.0756648,1.6603788513183593,-9.433154541015625,0.43933600463867184,-16.11328125,4.57763671875,7.080078125
1780627012.0796647,1.3395558288574219,-10.514136590576172,0.21068974609375,-9.94873046875,-0.42724609375,8.30078125
1780627012.0836647,0.833182177734375,-10.293870037841796,0.30047230834960936,-7.9345703125,0.42724609375,8.1787109375
1780627012.0876646,0.9361328491210937,-10.231620794677733,0.3950432739257812,-5.18798828125,2.50244140625,7.14111328125
1780627012.0916646,0.8403647827148437,-10.551246716308594,0.7278373046875,0.244140625,-1.46484375,7.32421875
1780627012.0956645,1.2222399475097656,-10.50216558227539,1.1863269226074218,10.07080078125,-8.60595703125,11.5966796875
1780627012.0996644,1.0223241088867188,-10.443507641601562,0.19632453613281248,26.2451171875,4.39453125,22.3388671875
1780627012.1036644,0.9373299499511718,-10.031704956054687,0.7266402038574218,26.9775390625,4.94384765625,25.7568359375
1780627012.1076643,1.2773065856933592,-9.630676177978515,0.8834604125976562,28.25927734375,6.4697265625,28.50341796875
1780627012.1116643,0.9457096557617187,-9.551667523193359,0.853532891845703,30.82275390625,7.9345703125,31.79931640625
1780627012.1156642,1.1947066284179686,-9.719261639404296,0.4740519287109375,31.73828125,10.986328125,34.85107421875
1780627012.1196642,1.1851298217773436,-9.214085089111327,0.7972691528320313,29.84619140625,14.95361328125,37.4755859375
1780627012.1236641,1.4221557861328125,-9.147047442626953,1.1767501159667968,30.09033203125,16.41845703125,39.55078125
1780627012.127664,1.6136919189453125,-9.272743029785156,0.9696516723632812,28.86962890625,16.845703125,41.19873046875
1780627012.131664,1.3551181396484375,-9.138667736816405,0.9062053283691406,27.9541015625,17.02880859375,42.724609375
1780627012.135664,1.4329296936035156,-9.003395343017578,0.5710170959472656,25.69580078125,20.20263671875,43.76220703125
1780627012.139664,1.2330138549804688,-8.89326206665039,0.5901707092285156,23.8037109375,23.01025390625,45.34912109375
1780627012.143664,1.5011644409179687,-9.162609753417968,0.5339069702148437,21.484375,23.25439453125,45.8984375
1780627012.1476638,1.4305354919433593,-9.166201055908203,0.6272808349609375,19.4091796875,23.193359375,46.5087890625
1780627012.1516638,1.303642803955078,-9.093177905273437,0.6368576416015624,16.78466796875,25.0244140625,46.630859375
1780627012.1556637,1.2880804931640624,-9.215282189941405,0.49679684448242184,14.95361328125,26.611328125,46.56982421875
1780627012.1596637,1.2114660400390624,-9.285911138916015,0.5315127685546874,13.61083984375,26.55029296875,46.44775390625
1780627012.1636636,1.3527239379882812,-9.272743029785156,0.6560112548828124,12.02392578125,27.2216796875,45.2880859375
1780627012.1676636,1.2401964599609374,-9.154230047607422,0.8355763793945312,11.1083984375,27.03857421875,44.61669921875
1780627012.1716635,1.3958195678710936,-9.289502441406249,0.6823474731445313,10.07080078125,26.0009765625,43.212890625
1780627012.1756635,1.2569558715820313,-9.240421307373046,0.7601590270996094,9.6435546875,25.45166015625,41.8701171875
1780627012.1796634,1.3120225097656248,-9.132682232666015,0.7781155395507812,8.60595703125,25.634765625,40.34423828125
1780627012.1836634,1.3311761230468748,-9.203311181640624,0.8786720092773437,8.23974609375,25.390625,38.87939453125
1780627012.1876633,1.2785036865234374,-9.291896643066405,0.8906430175781249,6.9580078125,24.0478515625,37.59765625
1780627012.1916633,1.3407529296874998,-9.249998114013671,0.8128314636230468,6.04248046875,22.88818359375,35.888671875
1780627012.1956632,1.2737152832031249,-9.27633433227539,0.7254431030273437,3.35693359375,22.4609375,32.65380859375
1780627012.1996632,1.0534487304687499,-9.264363323974608,0.7984662536621093,1.64794921875,21.54541015625,31.25
1780627012.203663,1.1528080993652343,-9.267954626464844,0.7457938171386719,-0.48828125,20.56884765625,29.60205078125
1780627012.207663,1.1049240661621094,-9.326612567138671,0.8080430603027343,-2.50244140625,19.95849609375,27.89306640625
1780627012.211663,1.0019733947753906,-9.469067565917967,0.7721300354003906,-4.21142578125,18.85986328125,26.30615234375
1780627012.215663,1.1168950744628905,-9.580397943115234,0.6679822631835937,-6.2255859375,17.9443359375,23.98681640625
1780627012.219663,0.9002198242187499,-9.534908111572266,0.7972691528320313,-8.1787109375,18.24951171875,22.27783203125
1780627012.2236629,1.1611878051757811,-9.7683427734375,0.6380547424316406,-9.58251953125,17.15087890625,19.71435546875
1780627012.2276628,0.9864110839843749,-9.773131176757811,0.70868369140625,-10.7421875,16.845703125,17.39501953125
1780627012.2316628,1.0869675537109373,-9.765948571777344,0.6404489440917969,-11.41357421875,17.02880859375,14.16015625
1780627012.2356627,1.073799444580078,-9.759963067626952,0.6488286499023437,-11.53564453125,17.51708984375,11.16943359375
1780627012.2396626,1.0031704956054688,-9.81862100830078,0.6955155822753906,-11.77978515625,18.06640625,8.1787109375
1780627012.2436626,1.1743559143066407,-9.898826763916015,0.6332663391113281,-10.92529296875,17.7001953125,5.126953125
1780627012.2476625,0.9828197814941406,-9.80066449584961,0.8032546569824218,-10.8642578125,18.37158203125,2.44140625
1780627012.2516625,1.1623849060058593,-9.892841259765625,0.7026981872558593,-10.31494140625,18.61572265625,-1.03759765625
1780627012.2556624,0.9995791931152344,-9.871293444824218,0.7709329345703124,-10.1318359375,18.6767578125,-3.5400390625
1780627012.2596624,1.0223241088867188,-9.866505041503906,0.7038952880859375,-9.58251953125,19.10400390625,-5.859375
1780627012.2636623,0.9600748657226562,-9.805452899169921,0.6248866333007812,-9.58251953125,19.1650390625,-8.1787109375
1780627012.2676623,0.8056488586425781,-9.776722479248047,0.6416460449218749,-9.521484375,19.83642578125,-9.521484375
1780627012.2716622,0.824802471923828,-9.83777462158203,0.5267243652343749,-9.46044921875,19.95849609375,-11.04736328125
1780627012.2756622,0.6021417175292968,-9.739612353515625,0.63206923828125,-9.8876953125,20.6298828125,-11.8408203125
1780627012.2796621,0.6069301208496093,-9.90241806640625,0.604535919189453,-9.94873046875,21.05712890625,-12.8173828125
1780627012.283662,0.46208092041015625,-9.910797772216796,0.689530078125,-9.521484375,20.263671875,-13.18359375
1780627012.287662,0.4632780212402344,-9.809044201660155,0.7577648254394531,-9.033203125,19.8974609375,-13.7939453125
1780627012.291662,0.4034229797363281,-9.710881933593749,0.8008604553222656,-8.056640625,18.85986328125,-13.7939453125
1780627012.295662,0.3315969299316406,-9.676166009521484,0.8978256225585937,-7.38525390625,17.9443359375,-13.73291015625
1780627012.2996619,0.39983167724609375,-9.643844287109374,0.9301473449707031,-6.34765625,16.66259765625,-13.18359375
1780627012.3036618,0.28490999755859375,-9.550470422363281,1.0438719238281249,-5.67626953125,15.07568359375,-12.451171875
1780627012.3076618,0.3507505432128906,-9.514557397460937,1.0175357055664063,-5.126953125,13.671875,-12.0849609375
1780627012.3116617,0.24181436767578124,-9.460687860107422,1.0091559997558592,-5.31005859375,11.29150390625,-10.6201171875
1780627012.3156617,0.2825157958984375,-9.408015423583985,0.9241618408203125,-5.55419921875,9.521484375,-9.765625
1780627012.3196616,0.22744915771484372,-9.320627062988281,0.8870517150878906,-6.591796875,7.568359375,-8.60595703125
1780627012.3236616,0.2932897033691406,-9.330203869628905,0.8643067993164062,-7.4462890625,5.4931640625,-7.8125
1780627012.3276615,0.39264907226562495,-9.388861810302734,0.8080430603027343,-8.85009765625,3.47900390625,-7.01904296875
1780627012.3316615,0.35194764404296874,-9.403227020263671,0.814028564453125,-10.6201171875,0.91552734375,-6.53076171875
1780627012.3356614,0.4513070129394531,-9.509768994140625,0.7541735229492187,-11.962890625,-0.6103515625,-6.4697265625
1780627012.3396614,0.36272155151367186,-9.586383447265625,0.8283937744140625,-12.8173828125,-2.50244140625,-5.9814453125
1780627012.3436613,0.47285482788085936,-9.745597857666015,0.8283937744140625,-13.73291015625,-3.90625,-6.34765625
1780627012.3476613,0.4225765930175781,-9.797073193359374,0.9313444458007812,-14.0380859375,-5.0048828125,-6.2255859375
1780627012.3516612,0.4752490295410156,-9.867702142333984,0.9265560424804687,-14.0380859375,-6.8359375,-6.4697265625
1780627012.3556612,0.46208092041015625,-9.888052856445311,0.8942343200683593,-14.09912109375,-8.056640625,-6.89697265625
1780627012.359661,0.43933600463867184,-9.934739788818359,0.86191259765625,-14.0380859375,-9.33837890625,-7.080078125
1780627012.363661,0.5793968017578125,-10.072406384277343,0.7050923889160156,-13.00048828125,-10.68115234375,-7.38525390625
1780627012.367661,0.5267243652343749,-10.141838232421874,0.6596025573730468,-12.451171875,-11.474609375,-7.62939453125
1780627012.371661,0.6368576416015624,-10.269928021240235,0.51714755859375,-11.23046875,-12.02392578125,-7.568359375
1780627012.375661,0.5925649108886718,-10.327388861083984,0.5063736511230469,-9.94873046875,-12.20703125,-7.4462890625
1780627012.3796608,0.6643909606933593,-10.375272894287109,0.39743747558593745,-8.97216796875,-12.451171875,-7.14111328125
1780627012.3836608,0.6512228515624999,-10.384849700927735,0.3232172241210937,-8.30078125,-12.87841796875,-6.8359375
1780627012.3876607,0.6200982299804687,-10.371681591796875,0.3028665100097656,-7.2021484375,-12.87841796875,-6.28662109375
1780627012.3916607,0.7493851196289062,-10.414777221679687,0.23343466186523437,-6.4697265625,-13.18359375,-5.859375
1780627012.3956606,0.6715735656738281,-10.31661495361328,0.32920272827148434,-5.67626953125,-12.6953125,-4.82177734375
1780627012.3996606,0.8080430603027343,-10.376469995117187,0.32082302246093747,-5.18798828125,-12.87841796875,-4.2724609375
1780627012.4036605,0.7841010437011718,-10.307038146972655,0.4177881896972656,-4.8828125,-13.0615234375,-3.2958984375
1780627012.4076605,0.8463502868652343,-10.273519323730468,0.4333505004882812,-4.7607421875,-13.36669921875,-2.99072265625
1780627012.4116604,0.9205705383300781,-10.231620794677733,0.4560954162597656,-4.7607421875,-13.0615234375,-2.74658203125
1780627012.4156604,0.8894459167480468,-10.205284576416014,0.5159504577636719,-4.82177734375,-12.87841796875,-1.953125
1780627012.4196603,0.9552864624023437,-10.273519323730468,0.4704606262207031,-5.0048828125,-12.39013671875,-1.64794921875
1780627012.4236603,0.9217676391601562,-10.279504827880858,0.5566518859863281,-5.18798828125,-11.8408203125,-1.52587890625
1780627012.4276602,1.0283096130371092,-10.371681591796875,0.4991910461425781,-5.7373046875,-11.16943359375,-1.708984375
1780627012.4316602,0.9600748657226562,-10.433930834960936,0.5446808776855468,-5.79833984375,-10.25390625,-1.8310546875
1780627012.4356601,0.948103857421875,-10.539275708007812,0.5195417602539062,-5.92041015625,-8.97216796875,-2.50244140625
1780627012.43966,0.9325415466308593,-10.618284362792968,0.4560954162597656,-5.615234375,-8.23974609375,-3.41796875
1780627012.44366,0.8918401184082031,-10.664971295166016,0.5207388610839844,-5.18798828125,-6.9580078125,-3.7841796875
1780627012.44766,0.9038111267089843,-10.761936462402343,0.488417138671875,-4.2724609375,-6.04248046875,-5.18798828125
1780627012.45166,0.8643067993164062,-10.788272680664061,0.5626373901367188,-3.0517578125,-4.94384765625,-6.591796875
1780627012.4556599,0.8894459167480468,-10.820594403076171,0.5626373901367188,-1.89208984375,-3.41796875,-7.99560546875
1780627012.4596598,0.834379278564453,-10.82777700805664,0.5877765075683593,-0.3662109375,-2.9296875,-9.21630859375
1780627012.4636598,0.814028564453125,-10.79545528564453,0.5781997009277343,1.46484375,-1.220703125,-10.80322265625
1780627012.4676597,0.7793126403808593,-10.664971295166016,0.5351040710449219,2.9296875,-0.244140625,-12.0849609375
1780627012.4716597,0.7457938171386719,-10.588356842041016,0.5626373901367188,4.57763671875,1.28173828125,-13.24462890625
1780627012.4756596,0.7625532287597656,-10.47702646484375,0.5686228942871093,6.2255859375,2.62451171875,-13.97705078125
1780627012.4796596,0.6979097839355468,-10.342951171874999,0.6344634399414062,7.8125,3.662109375,-14.7705078125
1780627012.4836595,0.6955155822753906,-10.177751257324218,0.6596025573730468,9.21630859375,4.57763671875,-15.13671875
1780627012.4876595,0.6440402465820312,-10.025719451904296,0.6967126831054687,9.521484375,5.31005859375,-15.19775390625
1780627012.4916594,0.6631938598632812,-9.904812268066406,0.6883329772949218,10.43701171875,5.9814453125,-14.95361328125
1780627012.4956594,0.6248866333007812,-9.750386260986328,0.7026981872558593,10.55908203125,6.4697265625,-14.46533203125
1780627012.4996593,0.603338818359375,-9.598354455566406,0.709880792236328,10.43701171875,7.32421875,-13.97705078125
1780627012.5036592,0.6332663391113281,-9.503783489990234,0.719457598876953,10.498046875,7.87353515625,-13.18359375
1780627012.5076592,0.5913678100585937,-9.434351641845703,0.7673416320800781,9.82666015625,8.30078125,-12.26806640625
1780627012.5116591,0.6260837341308594,-9.433154541015625,0.8391676818847655,8.97216796875,8.36181640625,-11.29150390625
1780627012.515659,0.5363011718749999,-9.452308154296874,0.9121908325195311,8.23974609375,10.1318359375,-8.7890625
1780627012.519659,0.4944026428222656,-9.421183532714844,0.9469067565917968,7.99560546875,10.498046875,-7.50732421875
1780627012.523659,0.5123591552734374,-9.437942944335937,0.97683427734375,8.11767578125,11.1083984375,-6.2255859375
1780627012.527659,0.48123453369140623,-9.399635717773437,1.0103531005859374,8.48388671875,11.23046875,-5.4931640625
1780627012.531659,0.4429273071289062,-9.392453112792968,1.0139444030761717,8.85009765625,11.3525390625,-4.0283203125
1780627012.5356588,0.42497079467773435,-9.362525592041015,0.9911994873046874,9.3994140625,11.65771484375,-2.99072265625
1780627012.5396588,0.3555389465332031,-9.281122735595703,1.0378864196777342,9.1552734375,12.02392578125,-1.8310546875
1780627012.5436587,0.3758896606445312,-9.217676391601563,1.0187328063964842,9.21630859375,11.8408203125,-1.03759765625
1780627012.5476587,0.3268085266113281,-9.138667736816405,1.0295067138671874,8.7890625,12.0849609375,0.6103515625
1780627012.5516586,0.316034619140625,-9.0788126953125,1.0342951171875,8.1787109375,12.3291015625,2.01416015625
1780627012.5556586,0.316034619140625,-9.023746057128905,1.0917559570312498,7.62939453125,12.0849609375,3.662109375
1780627012.5596585,0.277727392578125,-8.981847528076171,1.131260284423828,6.9580078125,11.65771484375,5.18798828125
1780627012.5636585,0.30406361083984373,-8.987833032226561,1.1540052001953125,6.2255859375,10.986328125,6.77490234375
1780627012.5676584,0.29448680419921874,-8.959102612304687,1.22583125,5.2490234375,10.31494140625,8.60595703125
1780627012.5716584,0.29089550170898437,-8.965088116455078,1.2078747375488281,4.2724609375,9.82666015625,10.19287109375
1780627012.5756583,0.28969840087890625,-9.03332286376953,1.1791443176269532,3.47900390625,9.09423828125,11.77978515625
1780627012.5796583,0.316034619140625,-9.102754711914063,1.180341418457031,2.86865234375,8.544921875,13.36669921875
1780627012.5836582,0.3112462158203125,-9.188945971679686,1.1336544860839843,2.5634765625,7.6904296875,14.83154296875
1780627012.5876582,0.3064578125,-9.254786517333983,1.0893617553710937,2.3193359375,7.26318359375,15.80810546875
1780627012.591658,0.373495458984375,-9.381679205322266,0.967257470703125,1.708984375,6.4697265625,16.41845703125
1780627012.595658,0.34117373657226563,-9.460687860107422,0.928950244140625,1.52587890625,6.16455078125,17.4560546875
1780627012.599658,0.40462008056640625,-9.521740002441407,0.8403647827148437,1.28173828125,6.16455078125,17.76123046875
1780627012.603658,0.4273649963378906,-9.617508068847656,0.7900865478515624,1.220703125,5.4931640625,18.00537109375
1780627012.607658,0.45489831542968745,-9.629479077148437,0.7505822204589844,0.9765625,5.126953125,17.88330078125
1780627012.6116579,0.48243163452148435,-9.624690673828125,0.6943184814453125,0.91552734375,5.18798828125,17.39501953125
1780627012.6156578,0.4896142395019531,-9.613916766357422,0.6524199523925781,0.42724609375,5.2490234375,17.27294921875
1780627012.6196578,0.5195417602539062,-9.609128363037108,0.5853823059082031,0.18310546875,5.37109375,16.29638671875
1780627012.6236577,0.5255272644042969,-9.568426934814452,0.5985504150390625,-0.79345703125,5.2490234375,15.7470703125
1780627012.6276577,0.5877765075683593,-9.551667523193359,0.6631938598632812,-2.9296875,5.55419921875,14.70947265625
1780627012.6316576,0.6464344482421874,-9.595960253906249,0.7206546997070312,-3.90625,5.67626953125,14.09912109375
1780627012.6356575,0.6536170532226562,-9.636661682128906,0.7864952453613281,-4.5166015625,5.4931640625,13.671875
1780627012.6396575,0.6153098266601562,-9.686939916992188,0.8032546569824218,-5.18798828125,5.7373046875,13.36669921875
1780627012.6436574,0.6584054565429687,-9.746794958496093,0.8403647827148437,-5.615234375,5.79833984375,12.75634765625
1780627012.6476574,0.6189011291503906,-9.891644158935547,0.8786720092773437,-5.67626953125,5.67626953125,12.20703125
1780627012.6516573,0.6344634399414062,-9.989806427001952,0.8894459167480468,-5.43212890625,5.55419921875,11.71875
1780627012.6556573,0.603338818359375,-10.087968695068358,0.8726865051269531,-4.8828125,5.7373046875,11.23046875
1780627012.6596572,0.5913678100585937,-10.160991845703125,0.8104372619628906,-4.21142578125,5.2490234375,10.43701171875
1780627012.6636572,0.5674257934570313,-10.211270080566406,0.7852981445312499,-3.23486328125,5.37109375,9.6435546875
1780627012.6676571,0.5829881042480468,-10.245986004638672,0.7314286071777343,-2.50244140625,5.06591796875,8.7890625
1780627012.671657,0.5422866760253906,-10.296264239501953,0.6679822631835937,-1.40380859375,5.18798828125,7.6904296875
1780627012.675657,0.5339069702148437,-10.284293231201172,0.6380547424316406,-0.42724609375,5.43212890625,6.53076171875
1780627012.679657,0.5231330627441406,-10.243591802978514,0.6260837341308594,0.06103515625,5.4931640625,5.55419921875
1780627012.683657,0.4860229370117187,-10.172962854003906,0.6667851623535156,1.3427734375,5.67626953125,3.173828125
1780627012.6876569,0.4369418029785156,-10.115502014160155,0.709880792236328,2.38037109375,6.04248046875,2.3193359375
1780627012.6916568,0.43454760131835934,-10.047267266845703,0.6787561706542968,2.5634765625,5.92041015625,1.220703125
1780627012.6956568,0.4177881896972656,-10.007762939453125,0.7050923889160156,2.685546875,5.79833984375,0.79345703125
1780627012.6996567,0.37828386230468747,-9.950302099609374,0.729034405517578,2.8076171875,5.615234375,0.244140625
1780627012.7036567,0.39863457641601563,-9.90840357055664,0.7266402038574218,2.8076171875,5.126953125,-0.06103515625
1780627012.7076566,0.3794809631347656,-9.882067352294921,0.7745242370605468,2.50244140625,4.57763671875,-0.244140625
1780627012.7116566,0.411802685546875,-9.90840357055664,0.7733271362304687,2.0751953125,4.08935546875,-0.48828125
1780627012.7156565,0.41539398803710936,-9.843760125732421,0.8355763793945312,1.77001953125,3.23486328125,-0.54931640625
1780627012.7196565,0.4800374328613281,-9.822212310791015,0.8894459167480468,1.708984375,2.99072265625,-0.9765625
1780627012.7236564,0.5231330627441406,-9.87727894897461,0.9564835632324218,1.52587890625,2.0751953125,-0.9765625
1780627012.7276564,0.5219359619140624,-9.91558617553711,0.9816226806640624,1.46484375,1.5869140625,-1.220703125
1780627012.7316563,0.5614402893066406,-9.976638317871092,0.958877764892578,1.77001953125,1.03759765625,-2.01416015625
1780627012.7356563,0.4944026428222656,-9.97783541870117,0.9193734375,1.8310546875,0.91552734375,-2.5634765625
1780627012.7396562,0.5051765502929687,-9.982623822021484,0.8415618835449218,1.953125,1.0986328125,-3.41796875
1780627012.7436562,0.5063736511230469,-9.941922393798828,0.8295908752441405,2.197265625,0.732421875,-4.39453125
1780627012.747656,0.5303156677246094,-9.898826763916015,0.7900865478515624,2.62451171875,0.6103515625,-5.126953125
1780627012.751656,0.5051765502929687,-9.868899243164062,0.7422025146484375,3.0517578125,0.6103515625,-6.103515625
1780627012.755656,0.45010991210937495,-9.813832604980469,0.7170633972167968,3.23486328125,0.244140625,-6.7138671875
1780627012.759656,0.4537012145996093,-9.758765966796874,0.6883329772949218,3.2958984375,0.18310546875,-7.62939453125
1780627012.763656,0.37708676147460934,-9.676166009521484,0.6823474731445313,3.35693359375,0.0,-8.48388671875
1780627012.7676558,0.3651157531738281,-9.627084875488281,0.6727706665039062,3.0517578125,-0.30517578125,-9.033203125
1780627012.7716558,0.3459621398925781,-9.561244329833984,0.7110778930664062,2.74658203125,-0.91552734375,-9.09423828125
1780627012.7756557,0.32441432495117184,-9.515754498291015,0.7613561279296874,2.86865234375,-1.0986328125,-9.27734375
1780627012.7796557,0.31962592163085934,-9.465476263427734,0.8008604553222656,2.99072265625,-2.0751953125,-9.09423828125
1780627012.7836556,0.33039982910156246,-9.39125601196289,0.8451531860351562,2.99072265625,-2.50244140625,-9.21630859375
1780627012.7876556,0.3232172241210937,-9.344569079589844,0.8678981018066406,2.685546875,-2.86865234375,-9.09423828125
1780627012.7916555,0.3507505432128906,-9.323021264648437,0.8571241943359375,2.50244140625,-3.41796875,-8.6669921875
1780627012.7956555,0.36631285400390623,-9.282319836425781,0.8164227661132812,2.0751953125,-3.90625,-8.30078125
1780627012.7996554,0.39983167724609375,-9.290699542236327,0.7996633544921875,1.3427734375,-4.39453125,-8.11767578125
1780627012.8036554,0.39264907226562495,-9.28351693725586,0.7817068420410156,1.03759765625,-5.0048828125,-7.8125
1780627012.8076553,0.4369418029785156,-9.271545928955078,0.8068459594726562,0.42724609375,-5.126953125,-7.568359375
1780627012.8116553,0.46686932373046874,-9.282319836425781,0.852335791015625,-0.1220703125,-5.67626953125,-7.50732421875
1780627012.8156552,0.4740519287109375,-9.272743029785156,0.9265560424804687,-0.9765625,-5.92041015625,-7.568359375
1780627012.8196552,0.5123591552734374,-9.351751684570312,0.9576806640625,-1.40380859375,-6.65283203125,-7.32421875
1780627012.8236551,0.5183446594238281,-9.340977777099608,0.958877764892578,-1.77001953125,-7.01904296875,-7.080078125
1780627012.827655,0.51714755859375,-9.363722692871093,0.9528922607421875,-2.01416015625,-7.4462890625,-7.14111328125
1780627012.831655,0.5027823486328125,-9.375693701171874,0.9469067565917968,-2.25830078125,-7.99560546875,-7.2021484375
1780627012.835655,0.5506663818359374,-9.387664709472656,0.9349357482910156,-2.5634765625,-8.6669921875,-7.14111328125
1780627012.839655,0.565031591796875,-9.433154541015625,0.9253589416503906,-3.0517578125,-9.27734375,-7.32421875
1780627012.8436549,0.6117185241699218,-9.46787046508789,0.928950244140625,-3.173828125,-10.07080078125,-7.38525390625
1780627012.8476548,0.6212953308105469,-9.479841473388671,0.8870517150878906,-3.60107421875,-10.68115234375,-7.62939453125
1780627012.8516548,0.6021417175292968,-9.503783489990234,0.8188169677734375,-4.150390625,-11.1083984375,-8.1787109375
1780627012.8556547,0.6332663391113281,-9.503783489990234,0.7445967163085937,-4.21142578125,-11.1083984375,-8.48388671875
1780627012.8596547,0.6512228515624999,-9.545682019042967,0.6871358764648438,-4.57763671875,-10.986328125,-8.85009765625
1780627012.8636546,0.6751648681640625,-9.545682019042967,0.6607996582031249,-4.8828125,-11.23046875,-9.33837890625
1780627012.8676546,0.6739677673339843,-9.532513909912108,0.59376201171875,-5.126953125,-10.92529296875,-9.521484375
1780627012.8716545,0.729034405517578,-9.534908111572266,0.5398924743652344,-5.18798828125,-11.04736328125,-9.765625
1780627012.8756545,0.7015010864257812,-9.491812481689452,0.5255272644042969,-5.0048828125,-10.8642578125,-9.58251953125
1780627012.8796544,0.7386112121582031,-9.488221179199218,0.5446808776855468,-4.94384765625,-10.6201171875,-9.765625
1780627012.8836544,0.7709329345703124,-9.442731347656249,0.6177040283203125,-4.94384765625,-10.6201171875,-9.765625
1780627012.8876543,0.8702923034667969,-9.451111053466796,0.6943184814453125,-4.57763671875,-10.80322265625,-9.46044921875
1780627012.8916543,0.9313444458007812,-9.465476263427734,0.7924807495117187,-4.45556640625,-10.8642578125,-9.033203125
1780627012.8956542,0.9876081848144531,-9.504980590820312,0.8571241943359375,-4.21142578125,-10.68115234375,-8.97216796875
1780627012.8996542,1.054645831298828,-9.567229833984374,0.8667010009765624,-3.47900390625,-10.3759765625,-8.544921875
1780627012.903654,1.0654197387695312,-9.617508068847656,0.8990227233886718,-2.685546875,-9.82666015625,-7.99560546875
1780627012.907654,1.1767501159667968,-9.718064538574218,0.8762778076171874,-2.01416015625,-9.3994140625,-7.6904296875
1780627012.911654,1.1982979309082031,-9.80066449584961,0.8930372192382812,-0.9765625,-8.60595703125,-7.38525390625
1780627012.915654,1.20667763671875,-9.884461553955077,0.833182177734375,0.48828125,-8.23974609375,-7.080078125
1780627012.919654,1.1815385192871093,-9.910797772216796,0.7565677246093749,1.953125,-7.87353515625,-6.77490234375
1780627012.9236538,1.1384428894042968,-9.941922393798828,0.6811503723144531,3.72314453125,-7.4462890625,-6.89697265625
1780627012.9276538,1.1049240661621094,-9.880870251464843,0.6392518432617187,5.37109375,-7.2021484375,-6.34765625
1780627012.9316537,1.1180921752929687,-9.804255798339844,0.6093243225097655,6.77490234375,-6.89697265625,-5.7373046875
1780627012.9356537,1.1037269653320312,-9.74200655517578,0.4944026428222656,7.99560546875,-7.38525390625,-5.2490234375
1780627012.9396536,1.0438719238281249,-9.665392102050781,0.34835634155273437,8.48388671875,-7.50732421875,-4.5166015625
1780627012.9436536,1.0211270080566406,-9.589974749755859,0.2059013427734375,8.4228515625,-7.080078125,-4.08935546875
1780627012.9476535,1.0235212097167967,-9.548076220703125,0.1304839904785156,7.75146484375,-7.14111328125,-3.41796875
1780627012.9516535,1.045069024658203,-9.430760339355468,0.15083470458984374,7.01904296875,-7.01904296875,-3.11279296875
1780627012.9556534,1.0989385620117187,-9.348160382080078,0.2609679809570312,5.859375,-7.14111328125,-2.685546875
1780627012.9596534,1.1767501159667968,-9.282319836425781,0.37708676147460934,5.126953125,-7.080078125,-2.62451171875
1780627012.9636533,1.1815385192871093,-9.26316622314453,0.5183446594238281,3.7841796875,-6.89697265625,-2.62451171875
1780627012.9676533,1.20667763671875,-9.264363323974608,0.6284779357910156,2.86865234375,-6.2255859375,-2.5634765625
1780627012.9716532,1.1647791076660157,-9.284714038085937,0.7745242370605468,2.0751953125,-5.55419921875,-2.8076171875
1780627012.9756532,1.1468225952148436,-9.336189373779296,0.9002198242187499,0.91552734375,-4.8828125,-2.685546875
1780627012.9796531,1.1671733093261718,-9.402029919433593,0.9911994873046874,0.1220703125,-4.5166015625,-3.23486328125
1780627012.983653,1.13006318359375,-9.422380633544922,1.042674822998047,-0.6103515625,-4.2724609375,-3.11279296875
1780627012.987653,1.1037269653320312,-9.514557397460937,1.0235212097167967,-1.0986328125,-3.5400390625,-3.35693359375
1780627012.991653,1.0330980163574217,-9.586383447265625,1.0534487304687499,-1.15966796875,-3.0517578125,-3.662109375
1780627012.995653,0.9720458740234375,-9.657012396240233,1.1061211669921875,-0.91552734375,-2.25830078125,-3.84521484375
1780627012.9996529,0.8990227233886718,-9.767145672607422,1.1432312927246093,-0.79345703125,-1.40380859375,-3.90625
1780627013.0036528,0.8319850769042968,-9.83178911743164,1.1875240234375,0.0,-1.0986328125,-3.96728515625
1780627013.0076528,0.7697358337402344,-9.896432562255859,1.1851298217773436,0.732421875,-0.91552734375,-4.08935546875
1780627013.0116527,0.6751648681640625,-9.90241806640625,1.1563994018554686,1.64794921875,-1.0986328125,-4.0283203125
1780627013.0156527,0.6093243225097655,-9.898826763916015,1.1336544860839843,2.38037109375,-0.42724609375,-3.72314453125
1780627013.0196526,0.5925649108886718,-9.93354268798828,1.112106671142578,3.41796875,-1.0986328125,-3.84521484375
1780627013.0236526,0.49799394531249996,-9.934739788818359,1.1228805786132812,4.0283203125,-1.220703125,-3.173828125
1780627013.0276525,0.507570751953125,-9.917980377197265,1.1061211669921875,4.57763671875,-1.89208984375,-2.9296875
1780627013.0316525,0.5063736511230469,-9.865307940673828,1.120486376953125,5.126953125,-2.74658203125,-2.62451171875
1780627013.0356524,0.48722003784179685,-9.849745629882811,1.0965443603515623,5.615234375,-2.99072265625,-2.197265625
1780627013.0396523,0.51714755859375,-9.868899243164062,1.112106671142578,5.92041015625,-4.0283203125,-1.8310546875
1780627013.0436523,0.5626373901367188,-9.835380419921874,1.1456254943847655,5.9814453125,-4.638671875,-1.5869140625
1780627013.0476522,0.612915625,-9.801861596679688,1.1180921752929687,6.04248046875,-5.43212890625,-1.28173828125
1780627013.0516522,0.6296750366210937,-9.79946739501953,1.1013327636718748,5.9814453125,-5.79833984375,-1.40380859375
1780627013.0556521,0.6871358764648438,-9.817423907470703,1.0893617553710937,5.79833984375,-6.34765625,-1.40380859375
1780627013.059652,0.7505822204589844,-9.809044201660155,1.0570400329589844,5.615234375,-6.4697265625,-1.5869140625
1780627013.063652,0.7805097412109374,-9.813832604980469,1.0534487304687499,5.2490234375,-6.4697265625,-1.64794921875
1780627013.067652,0.8008604553222656,-9.789890588378906,1.0115502014160156,4.8828125,-6.28662109375,-2.0751953125
1780627013.071652,0.8152256652832031,-9.79946739501953,0.9888052856445312,4.33349609375,-6.103515625,-2.25830078125
1780627013.075652,0.8068459594726562,-9.78629928588867,0.9744400756835937,4.150390625,-5.4931640625,-2.5634765625
1780627013.0796518,0.8188169677734375,-9.777919580078125,0.9792284790039062,3.96728515625,-4.82177734375,-2.86865234375
1780627013.0836518,0.7805097412109374,-9.759963067626952,1.016338604736328,3.11279296875,-4.94384765625,-3.173828125
1780627013.0876517,0.7781155395507812,-9.744400756835937,1.0570400329589844,3.11279296875,-4.5166015625,-3.173828125
1780627013.0916517,0.7278373046875,-9.706093530273437,1.045069024658203,2.9296875,-4.5166015625,-2.99072265625
1780627013.0956516,0.718260498046875,-9.648632690429688,1.042674822998047,2.44140625,-4.7607421875,-2.86865234375
1780627013.0996516,0.6727706665039062,-9.629479077148437,1.0211270080566406,1.8310546875,-5.06591796875,-2.38037109375
1780627013.1036515,0.6548141540527344,-9.605537060546874,1.016338604736328,1.64794921875,-5.37109375,-1.77001953125
1780627013.1076515,0.6464344482421874,-9.603142858886718,1.0223241088867188,1.15966796875,-5.79833984375,-1.03759765625
1780627013.1116514,0.6679822631835937,-9.567229833984374,0.9947907897949219,0.1220703125,-6.7138671875,-0.732421875
1780627013.1156514,0.6536170532226562,-9.589974749755859,0.9911994873046874,-0.732421875,-7.38525390625,-0.18310546875
1780627013.1196513,0.6536170532226562,-9.551667523193359,1.0127473022460938,-1.3427734375,-8.4228515625,0.54931640625
1780627013.1236513,0.7026981872558593,-9.56962403564453,1.0007762939453124,-2.197265625,-9.21630859375,0.91552734375
1780627013.1276512,0.7302315063476562,-9.570821136474608,0.9864110839843749,-3.11279296875,-10.1318359375,1.3427734375
1780627013.1316512,0.7936778503417968,-9.599551556396484,0.9852139831542969,-4.2724609375,-10.80322265625,1.28173828125
1780627013.135651,0.8547299926757812,-9.667786303710937,0.9516951599121093,-4.94384765625,-11.1083984375,1.40380859375
1780627013.139651,0.9097966308593749,-9.700108026123047,0.9792284790039062,-6.04248046875,-11.41357421875,1.0986328125
1780627013.143651,0.9552864624023437,-9.751583361816406,0.9349357482910156,-6.9580078125,-11.04736328125,0.6103515625
1780627013.147651,1.006761798095703,-9.81263550415039,0.9145850341796874,-7.14111328125,-10.986328125,0.1220703125
1780627013.151651,1.0438719238281249,-9.848548529052733,0.8798691101074219,-7.87353515625,-10.43701171875,-0.6103515625
1780627013.1556509,1.0821791503906248,-9.913191973876952,0.8128314636230468,-7.9345703125,-9.70458984375,-1.3427734375
1780627013.1596508,1.0977414611816405,-9.934739788818359,0.7457938171386719,-8.30078125,-8.9111328125,-2.197265625
1780627013.1636508,1.0893617553710937,-9.94671079711914,0.7062894897460937,-8.36181640625,-7.8125,-2.685546875
1780627013.1676507,1.0941501586914062,-10.008960040283203,0.679953271484375,-8.056640625,-6.7138671875,-3.41796875
1780627013.1716506,1.1013327636718748,-10.060435375976562,0.6332663391113281,-7.75146484375,-5.67626953125,-3.72314453125
1780627013.1756506,1.1049240661621094,-10.09993970336914,0.5817910034179687,-6.8359375,-3.84521484375,-4.08935546875
1780627013.1796505,1.1097124694824219,-10.071209283447265,0.5458779785156249,-5.92041015625,-2.44140625,-4.45556640625
1780627013.1836505,1.0953472595214844,-10.075997686767577,0.47285482788085936,-5.06591796875,-1.46484375,-4.33349609375
1780627013.1876504,1.052251629638672,-10.006565838623047,0.4513070129394531,-4.33349609375,-0.244140625,-4.39453125
1780627013.1916504,1.0402806213378906,-9.956287603759765,0.43574470214843747,-3.47900390625,0.91552734375,-3.7841796875
1780627013.1956503,1.0271125122070313,-9.93354268798828,0.507570751953125,-2.74658203125,2.197265625,-3.7841796875
1780627013.1996503,0.9911994873046874,-9.878476049804688,0.5602431884765625,-2.25830078125,2.74658203125,-3.41796875
1780627013.2036502,0.9636661682128905,-9.836577520751952,0.6272808349609375,-1.89208984375,3.7841796875,-2.9296875
1780627013.2076502,0.9636661682128905,-9.785102185058593,0.6943184814453125,-1.220703125,4.638671875,-2.3193359375
1780627013.2116501,0.9445125549316405,-9.750386260986328,0.7793126403808593,-0.9765625,5.18798828125,-1.52587890625
1780627013.21565,0.9121908325195311,-9.69771382446289,0.8463502868652343,-0.54931640625,5.67626953125,-1.28173828125
1780627013.21965,0.9038111267089843,-9.67856021118164,0.8738836059570312,-0.48828125,5.7373046875,-0.79345703125
1780627013.22365,0.8714894042968749,-9.642647186279296,0.9121908325195311,-0.1220703125,6.40869140625,-0.244140625
1780627013.22765,0.8643067993164062,-9.649829791259766,0.9038111267089843,-0.1220703125,6.77490234375,0.244140625
1780627013.2316499,0.86191259765625,-9.609128363037108,0.9325415466308593,0.30517578125,7.32421875,0.48828125
1780627013.2356498,0.8559270935058593,-9.618705169677733,0.9624690673828125,0.48828125,7.62939453125,0.91552734375
1780627013.2396498,0.8080430603027343,-9.598354455566406,0.9792284790039062,0.732421875,8.1787109375,1.0986328125
1780627013.2436497,0.7996633544921875,-9.598354455566406,0.9648632690429687,0.67138671875,7.9345703125,1.40380859375
1780627013.2476497,0.8116343627929687,-9.623493572998047,0.9804255798339843,0.67138671875,8.7890625,1.64794921875
1780627013.2516496,0.7841010437011718,-9.616310968017578,0.9804255798339843,0.8544921875,8.85009765625,1.64794921875
1780627013.2556496,0.7673416320800781,-9.628281976318359,0.9540893615722655,0.732421875,8.7890625,1.953125
1780627013.2596495,0.7493851196289062,-9.60194575805664,0.9864110839843749,0.48828125,9.33837890625,1.8310546875
1780627013.2636495,0.7326257080078125,-9.574412438964844,1.0031704956054688,0.06103515625,9.3994140625,1.89208984375
1780627013.2676494,0.7481880187988281,-9.603142858886718,1.0199299072265624,0.0,9.82666015625,1.708984375
1780627013.2716494,0.6883329772949218,-9.593566052246093,1.0881646545410155,-0.6103515625,9.8876953125,1.8310546875
1780627013.2756493,0.6380547424316406,-9.58279214477539,1.0702081420898437,-0.54931640625,10.31494140625,2.01416015625
1780627013.2796493,0.5746083984375,-9.55645592651367,1.0462661254882812,-0.9765625,10.3759765625,1.953125
1780627013.2836492,0.5147533569335937,-9.567229833984374,1.0378864196777342,-1.0986328125,10.6201171875,2.13623046875
1780627013.2876492,0.507570751953125,-9.588777648925781,1.0905588562011719,-1.28173828125,10.68115234375,2.50244140625
1780627013.291649,0.4321533996582031,-9.597157354736327,1.0989385620117187,-1.220703125,10.55908203125,2.86865234375
1780627013.295649,0.37229835815429685,-9.623493572998047,1.1156979736328125,-1.15966796875,10.498046875,3.662109375
1780627013.299649,0.354341845703125,-9.686939916992188,1.1037269653320312,-0.6103515625,9.94873046875,4.39453125
1780627013.303649,0.2885013000488281,-9.682151513671874,1.1288660827636718,-0.3662109375,9.58251953125,5.18798828125
1780627013.307649,0.28969840087890625,-9.712079034423828,1.1252747802734375,0.244140625,8.7890625,5.79833984375
1780627013.3116488,0.23702596435546874,-9.707290631103515,1.121683477783203,1.03759765625,8.1787109375,6.591796875
1780627013.3156488,0.229843359375,-9.734823950195311,1.1228805786132812,1.3427734375,7.01904296875,7.8125
1780627013.3196487,0.22385785522460935,-9.724050042724608,1.0893617553710937,1.8310546875,6.16455078125,8.30078125
1780627013.3236487,0.21308394775390624,-9.765948571777344,1.0726023437499999,1.8310546875,4.94384765625,8.6669921875
1780627013.3276486,0.229843359375,-9.744400756835937,1.0821791503906248,1.89208984375,3.90625,9.033203125
1780627013.3316486,0.24181436767578124,-9.752780462646484,1.0869675537109373,1.89208984375,2.9296875,9.46044921875
1780627013.3356485,0.28730419921875,-9.758765966796874,1.0917559570312498,1.89208984375,1.89208984375,9.521484375
1780627013.3396485,0.3280056274414062,-9.803058697509766,1.1013327636718748,1.77001953125,1.15966796875,9.6435546875
1780627013.3436484,0.40940848388671874,-9.846154327392577,1.0977414611816405,1.5869140625,0.42724609375,9.33837890625
1780627013.3476484,0.4740519287109375,-9.813832604980469,1.0905588562011719,1.40380859375,-0.30517578125,9.033203125
1780627013.3516483,0.5051765502929687,-9.884461553955077,1.0726023437499999,1.64794921875,-0.79345703125,7.99560546875
1780627013.3556483,0.5793968017578125,-9.926360083007811,1.064222637939453,1.3427734375,-0.6103515625,7.75146484375
1780627013.3596482,0.6117185241699218,-9.949104998779296,1.0510545288085937,1.46484375,-0.79345703125,7.14111328125
1780627013.3636482,0.6536170532226562,-9.947907897949218,1.0330980163574217,1.52587890625,-1.15966796875,5.9814453125
1780627013.3676481,0.7050923889160156,-9.95987890625,1.0342951171875,1.15966796875,-1.15966796875,5.18798828125
1780627013.371648,0.7003039855957031,-9.963470208740233,1.0175357055664063,1.0986328125,-1.220703125,4.08935546875
1780627013.375648,0.7110778930664062,-9.93952819213867,0.9995791931152344,1.28173828125,-1.708984375,3.173828125
1780627013.379648,0.7206546997070312,-9.945513696289062,0.9947907897949219,1.15966796875,-1.5869140625,2.0751953125
1780627013.383648,0.7242460021972655,-9.928754284667969,0.9816226806640624,0.91552734375,-1.89208984375,1.0986328125
1780627013.3876479,0.7122749938964843,-9.920374578857421,0.9947907897949219,1.0986328125,-2.25830078125,0.1220703125
1780627013.3916478,0.7050923889160156,-9.9215716796875,0.9876081848144531,1.15966796875,-2.685546875,-0.732421875
1780627013.3956478,0.6883329772949218,-9.848548529052733,0.9361328491210937,0.9765625,-4.33349609375,-2.13623046875
1780627013.3996477,0.6691793640136718,-9.832986218261718,0.9337386474609375,0.79345703125,-4.94384765625,-2.685546875
1780627013.4036477,0.6619967590332031,-9.828197814941406,0.9121908325195311,0.732421875,-5.79833984375,-3.5400390625
1780627013.4076476,0.6440402465820312,-9.78031378173828,0.8726865051269531,0.3662109375,-6.53076171875,-4.150390625
1780627013.4116476,0.6619967590332031,-9.797073193359374,0.8643067993164062,0.244140625,-7.62939453125,-4.69970703125
1780627013.4156475,0.6775590698242188,-9.769539874267577,0.8259995727539062,-0.30517578125,-8.1787109375,-5.126953125
1780627013.4196475,0.6823474731445313,-9.776722479248047,0.853532891845703,-0.3662109375,-8.9111328125,-5.4931640625
1780627013.4236474,0.7386112121582031,-9.758765966796874,0.8200140686035156,-0.8544921875,-9.82666015625,-6.04248046875
1780627013.4276474,0.8020575561523438,-9.730035546875,0.8020575561523438,-0.67138671875,-10.07080078125,-6.591796875
1780627013.4316473,0.8188169677734375,-9.725247143554688,0.8020575561523438,-1.0986328125,-10.19287109375,-7.01904296875
1780627013.4356472,0.8690952026367187,-9.698910925292969,0.7733271362304687,-1.3427734375,-10.31494140625,-7.2021484375
1780627013.4396472,0.9253589416503906,-9.667786303710937,0.7685387329101562,-1.708984375,-10.07080078125,-7.4462890625
1780627013.4436471,0.9840168823242187,-9.642647186279296,0.7541735229492187,-1.953125,-10.009765625,-8.36181640625
1780627013.447647,1.024718310546875,-9.595960253906249,0.7505822204589844,-2.0751953125,-9.58251953125,-8.1787109375
1780627013.451647,1.0785878479003905,-9.616310968017578,0.7386112121582031,-2.3193359375,-9.21630859375,-8.544921875
1780627013.455647,1.1061211669921875,-9.55645592651367,0.7110778930664062,-2.62451171875,-8.60595703125,-8.6669921875
1780627013.459647,1.1563994018554686,-9.561244329833984,0.6847416748046875,-2.8076171875,-8.4228515625,-8.85009765625
1780627013.463647,1.1659762084960936,-9.558850128173827,0.6464344482421874,-3.23486328125,-7.568359375,-8.97216796875
1780627013.4676468,1.2114660400390624,-9.550470422363281,0.6212953308105469,-3.60107421875,-7.01904296875,-9.033203125
1780627013.4716468,1.1947066284179686,-9.5384994140625,0.6153098266601562,-3.662109375,-6.28662109375,-9.27734375
1780627013.4756467,1.1911153259277343,-9.557653027343749,0.6296750366210937,-4.150390625,-5.4931640625,-9.27734375
1780627013.4796467,1.1923124267578125,-9.585186346435547,0.6584054565429687,-4.45556640625,-5.126953125,-9.3994140625
1780627013.4836466,1.2114660400390624,-9.634267480468749,0.6440402465820312,-4.638671875,-4.33349609375,-9.6435546875
1780627013.4876466,1.1767501159667968,-9.65940659790039,0.6751648681640625,-4.39453125,-4.0283203125,-9.46044921875
1780627013.4916465,1.1671733093261718,-9.670180505371093,0.6979097839355468,-4.45556640625,-3.47900390625,-10.1318359375
1780627013.4956465,1.1432312927246093,-9.712079034423828,0.7026981872558593,-4.33349609375,-3.0517578125,-10.498046875
1780627013.4996464,1.102529864501953,-9.724050042724608,0.6751648681640625,-4.0283203125,-2.685546875,-10.68115234375
1780627013.5036464,1.0857704528808594,-9.70369932861328,0.6081272216796875,-3.72314453125,-2.44140625,-11.3525390625
1780627013.5076463,1.0438719238281249,-9.727641345214844,0.5542576843261718,-3.5400390625,-2.0751953125,-11.77978515625
1780627013.5116463,0.9888052856445312,-9.667786303710937,0.4860229370117187,-3.35693359375,-1.15966796875,-12.3291015625
1780627013.5156462,0.93852705078125,-9.630676177978515,0.45489831542968745,-3.0517578125,-0.8544921875,-12.451171875
1780627013.5196462,0.9325415466308593,-9.586383447265625,0.47764323120117186,-3.173828125,-0.67138671875,-12.75634765625
1780627013.523646,0.9313444458007812,-9.524134204101562,0.46806642456054687,-3.173828125,-0.3662109375,-12.75634765625
1780627013.527646,0.9050082275390624,-9.510966094970703,0.5039794494628906,-3.0517578125,-0.3662109375,-12.26806640625
1780627013.531646,0.8954314208984374,-9.452308154296874,0.5195417602539062,-2.8076171875,-0.42724609375,-11.90185546875
1780627013.535646,0.8906430175781249,-9.442731347656249,0.5183446594238281,-3.0517578125,-0.18310546875,-11.474609375
1780627013.539646,0.8918401184082031,-9.41040962524414,0.5339069702148437,-3.23486328125,-0.3662109375,-10.55908203125
1780627013.5436459,0.9097966308593749,-9.384073406982422,0.5327098693847656,-3.23486328125,-0.91552734375,-10.07080078125
1780627013.5476458,0.9229647399902343,-9.381679205322266,0.5542576843261718,-3.5400390625,-0.8544921875,-8.7890625
1780627013.5516458,0.9241618408203125,-9.376890802001952,0.594959112548828,-4.08935546875,-1.03759765625,-8.056640625
1780627013.5556457,0.939724151611328,-9.343371978759764,0.6619967590332031,-4.08935546875,-1.46484375,-7.32421875
1780627013.5596457,0.9888052856445312,-9.350554583740234,0.7110778930664062,-4.45556640625,-2.01416015625,-6.77490234375
1780627013.5636456,0.9876081848144531,-9.334992272949219,0.7649474304199219,-4.82177734375,-1.953125,-6.34765625
1780627013.5676455,0.9756371765136718,-9.340977777099608,0.7876923461914062,-5.126953125,-2.13623046875,-5.67626953125
1780627013.5716455,0.9983820922851562,-9.368511096191405,0.8032546569824218,-5.37109375,-2.25830078125,-5.43212890625
1780627013.5756454,0.9947907897949219,-9.354145886230468,0.8164227661132812,-5.31005859375,-2.50244140625,-4.82177734375
1780627013.5796454,1.0199299072265624,-9.414000927734374,0.8403647827148437,-5.4931640625,-2.38037109375,-4.69970703125
1780627013.5836453,1.0402806213378906,-9.453505255126952,0.8224082702636718,-5.55419921875,-2.5634765625,-4.45556640625
1780627013.5876453,1.0594342346191405,-9.5001921875,0.8355763793945312,-5.43212890625,-2.25830078125,-4.08935546875
1780627013.5916452,1.042674822998047,-9.533711010742186,0.8283937744140625,-4.82177734375,-2.25830078125,-3.47900390625
1780627013.5956452,1.0402806213378906,-9.564835632324218,0.7960720520019531,-4.638671875,-2.01416015625,-3.173828125
1780627013.5996451,1.0187328063964842,-9.695319622802733,0.7876923461914062,-3.41796875,-1.52587890625,-2.0751953125
1780627013.603645,1.0319009155273438,-9.69771382446289,0.7805097412109374,-2.685546875,-1.3427734375,-1.52587890625
1780627013.607645,1.0043675964355467,-9.758765966796874,0.74699091796875,-2.0751953125,-0.9765625,-0.91552734375
1780627013.611645,0.9720458740234375,-9.773131176757811,0.74699091796875,-1.40380859375,-0.79345703125,0.1220703125
1780627013.615645,0.9792284790039062,-9.791087689208984,0.7565677246093749,-0.18310546875,-0.732421875,0.79345703125
1780627013.6196449,0.967257470703125,-9.801861596679688,0.7721300354003906,0.6103515625,-0.91552734375,1.3427734375
1780627013.6236448,0.9947907897949219,-9.85094273071289,0.7685387329101562,1.28173828125,-1.28173828125,2.38037109375
1780627013.6276448,0.9971849914550781,-9.789890588378906,0.7876923461914062,2.38037109375,-1.52587890625,2.74658203125
1780627013.6316447,1.0103531005859374,-9.76116016845703,0.8092401611328125,2.685546875,-1.77001953125,3.23486328125
1780627013.6356447,1.0187328063964842,-9.704896429443359,0.8212111694335937,3.5400390625,-2.01416015625,3.5400390625
1780627013.6396446,1.0295067138671874,-9.690531219482422,0.7769184387207031,3.47900390625,-2.50244140625,3.72314453125
1780627013.6436446,1.0330980163574217,-9.642647186279296,0.7733271362304687,3.72314453125,-2.685546875,3.90625
1780627013.6476445,1.0749965454101562,-9.595960253906249,0.7829039428710937,3.35693359375,-3.11279296875,3.96728515625
1780627013.6516445,1.0893617553710937,-9.561244329833984,0.7960720520019531,3.173828125,-3.662109375,3.72314453125
1780627013.6556444,1.1384428894042968,-9.549273321533203,0.7936778503417968,2.38037109375,-3.72314453125,3.5400390625
1780627013.6596444,1.16837041015625,-9.521740002441407,0.8020575561523438,2.13623046875,-4.21142578125,3.5400390625
1780627013.6636443,1.1982979309082031,-9.482235675048827,0.8367734802246093,1.3427734375,-4.2724609375,3.47900390625
1780627013.6676443,1.2437877624511717,-9.484629876708984,0.814028564453125,0.79345703125,-4.39453125,3.41796875
1780627013.6716442,1.255758770751953,-9.497797985839844,0.7888894470214843,0.42724609375,-4.150390625,2.74658203125
1780627013.6756442,1.3120225097656248,-9.51814869995117,0.7781155395507812,-0.244140625,-4.57763671875,2.5634765625
1780627013.679644,1.3299790222167969,-9.551667523193359,0.7433996154785156,-0.6103515625,-4.33349609375,1.708984375
1780627013.683644,1.341950030517578,-9.595960253906249,0.7314286071777343,-1.03759765625,-4.39453125,1.40380859375
1780627013.687644,1.35990654296875,-9.657012396240233,0.6811503723144531,-1.52587890625,-3.84521484375,0.6103515625
1780627013.691644,1.380257257080078,-9.706093530273437,0.6512228515624999,-1.77001953125,-3.662109375,-0.06103515625
1780627013.695644,1.3778630554199218,-9.727641345214844,0.6452373474121094,-2.01416015625,-3.11279296875,-0.79345703125
1780627013.6996439,1.3682862487792968,-9.743203656005859,0.6284779357910156,-2.13623046875,-3.0517578125,-1.89208984375
1780627013.7036438,1.3850456604003905,-9.819818109130859,0.6763619689941406,-1.8310546875,-2.50244140625,-3.5400390625
1780627013.7076437,1.3491326354980469,-9.835380419921874,0.6979097839355468,-1.708984375,-2.38037109375,-4.57763671875
1780627013.7116437,1.3527239379882812,-9.813832604980469,0.7242460021972655,-1.40380859375,-1.8310546875,-5.37109375
1780627013.7156436,1.3407529296874998,-9.785102185058593,0.7553706237792969,-1.5869140625,-1.5869140625,-6.04248046875
1780627013.7196436,1.301248602294922,-9.783905084228515,0.7864952453613281,-1.28173828125,-1.46484375,-6.4697265625
1780627013.7236435,1.2521674682617188,-9.753977563476562,0.8020575561523438,-1.15966796875,-1.40380859375,-6.9580078125
1780627013.7276435,1.2473790649414063,-9.743203656005859,0.7936778503417968,-1.03759765625,-1.3427734375,-7.080078125
1780627013.7316434,1.2246341491699217,-9.683348614501952,0.7912836486816406,-0.9765625,-1.3427734375,-7.01904296875
1780627013.7356434,1.2006921325683593,-9.668983404541015,0.7565677246093749,-0.9765625,-1.3427734375,-6.77490234375
1780627013.7396433,1.1839327209472656,-9.662997900390625,0.7278373046875,-1.220703125,-1.03759765625,-6.591796875
1780627013.7436433,1.189918225097656,-9.642647186279296,0.6931213806152343,-0.9765625,-0.79345703125,-6.103515625
1780627013.7476432,1.177947216796875,-9.666589202880859,0.679953271484375,-1.46484375,-0.8544921875,-5.4931640625
1780627013.7516432,1.1839327209472656,-9.712079034423828,0.6907271789550781,-1.28173828125,-0.54931640625,-4.94384765625
1780627013.7556431,1.159990704345703,-9.731232647705077,0.7206546997070312,-1.15966796875,-0.244140625,-3.96728515625
1780627013.759643,1.1731588134765625,-9.765948571777344,0.7254431030273437,-0.6103515625,0.244140625,-3.23486328125
1780627013.763643,1.1731588134765625,-9.767145672607422,0.7410054138183594,-0.3662109375,0.54931640625,-2.9296875
1780627013.767643,1.1851298217773436,-9.783905084228515,0.7697358337402344,-0.30517578125,1.03759765625,-2.25830078125
1780627013.771643,1.1791443176269532,-9.78629928588867,0.7996633544921875,0.6103515625,1.46484375,-1.64794921875
1780627013.7756429,1.1563994018554686,-9.78629928588867,0.8152256652832031,1.03759765625,1.953125,-0.9765625
1780627013.7796428,1.1324573852539062,-9.810241302490233,0.7637503295898437,1.8310546875,3.173828125,0.0
1780627013.7836428,1.0941501586914062,-9.803058697509766,0.7206546997070312,1.89208984375,3.23486328125,0.3662109375
1780627013.7876427,1.0953472595214844,-9.78629928588867,0.7015010864257812,1.708984375,3.60107421875,0.8544921875
1780627013.7916427,1.0953472595214844,-9.759963067626952,0.7038952880859375,1.77001953125,3.5400390625,1.46484375
1780627013.7956426,1.073799444580078,-9.732429748535155,0.6943184814453125,1.708984375,3.90625,1.89208984375
1780627013.7996426,1.071405242919922,-9.724050042724608,0.7134720947265625,1.64794921875,3.60107421875,2.0751953125
1780627013.8036425,1.0726023437499999,-9.689334118652344,0.7350199096679687,1.708984375,3.60107421875,2.38037109375
1780627013.8076425,1.0690110412597655,-9.679757312011718,0.7661445312499999,1.5869140625,3.35693359375,2.38037109375
1780627013.8116424,1.0438719238281249,-9.696516723632811,0.7733271362304687,1.46484375,3.11279296875,2.99072265625
1780627013.8156424,1.042674822998047,-9.698910925292969,0.8020575561523438,1.40380859375,2.8076171875,2.9296875
1780627013.8196423,1.0438719238281249,-9.69771382446289,0.7972691528320313,1.03759765625,2.685546875,3.0517578125
1780627013.8236423,1.0690110412597655,-9.712079034423828,0.7745242370605468,1.0986328125,2.74658203125,3.11279296875
1780627013.8276422,1.0486603271484374,-9.76235726928711,0.7410054138183594,1.15966796875,2.99072265625,2.99072265625
1780627013.8316422,1.0594342346191405,-9.77432827758789,0.7266402038574218,1.46484375,2.9296875,3.2958984375
1780627013.835642,1.0869675537109373,-9.783905084228515,0.7146691955566405,1.64794921875,3.35693359375,3.11279296875
1780627013.839642,1.064222637939453,-9.807847100830077,0.6907271789550781,1.8310546875,3.5400390625,3.11279296875
1780627013.843642,1.061828436279297,-9.80665,0.6859387756347656,2.3193359375,3.84521484375,3.0517578125
1780627013.847642,1.0570400329589844,-9.782707983398437,0.709880792236328,2.44140625,4.0283203125,2.86865234375
1780627013.851642,1.0319009155273438,-9.743203656005859,0.7038952880859375,2.50244140625,4.39453125,2.86865234375
1780627013.8556418,1.0139444030761717,-9.733626849365233,0.7122749938964843,2.8076171875,4.5166015625,2.685546875
1780627013.8596418,0.9636661682128905,-9.683348614501952,0.709880792236328,2.74658203125,4.82177734375,2.50244140625
1780627013.8636417,0.9528922607421875,-9.668983404541015,0.7386112121582031,2.62451171875,4.82177734375,2.44140625
1780627013.8676417,0.9732429748535155,-9.627084875488281,0.7326257080078125,2.44140625,4.82177734375,2.50244140625
1780627013.8716416,0.9121908325195311,-9.60793126220703,0.7649474304199219,2.25830078125,4.2724609375,2.685546875
1780627013.8756416,0.8798691101074219,-9.610325463867188,0.7972691528320313,1.5869140625,3.90625,2.685546875
1780627013.8796415,0.852335791015625,-9.592368951416015,0.7673416320800781,1.15966796875,3.173828125,2.50244140625
1780627013.8836415,0.8319850769042968,-9.586383447265625,0.7433996154785156,0.54931640625,2.685546875,2.685546875
1780627013.8876414,0.7876923461914062,-9.593566052246093,0.7445967163085937,-0.6103515625,1.953125,2.50244140625
1780627013.8916414,0.7685387329101562,-9.62109937133789,0.7350199096679687,-1.03759765625,1.3427734375,2.685546875
1780627013.8956413,0.7781155395507812,-9.6151138671875,0.7457938171386719,-1.8310546875,0.732421875,2.25830078125
1780627013.8996413,0.7829039428710937,-9.63307037963867,0.7661445312499999,-2.25830078125,0.06103515625,1.89208984375
1780627013.9036412,0.7852981445312499,-9.661800799560547,0.7852981445312499,-2.5634765625,-0.732421875,1.220703125
1780627013.9076412,0.7829039428710937,-9.715670336914062,0.8188169677734375,-2.8076171875,-1.220703125,0.79345703125
1780627013.9116411,0.7829039428710937,-9.74200655517578,0.8559270935058593,-2.99072265625,-1.3427734375,0.3662109375
1780627013.915641,0.7769184387207031,-9.767145672607422,0.8774749084472656,-2.9296875,-2.0751953125,-0.1220703125
1780627013.919641,0.7793126403808593,-9.782707983398437,0.8810662109374999,-2.5634765625,-2.685546875,-0.30517578125
1780627013.923641,0.8116343627929687,-9.79946739501953,0.8643067993164062,-2.44140625,-2.9296875,-0.732421875
1780627013.927641,0.8200140686035156,-9.795876092529296,0.8475473876953125,-1.953125,-3.47900390625,-0.91552734375
1780627013.9316409,0.8451531860351562,-9.803058697509766,0.8259995727539062,-1.52587890625,-3.60107421875,-1.46484375
1780627013.9356408,0.842758984375,-9.794678991699218,0.7721300354003906,-1.03759765625,-4.150390625,-1.52587890625
1780627013.9396408,0.8882488159179687,-9.777919580078125,0.7661445312499999,-0.67138671875,-4.33349609375,-1.77001953125
1780627013.9436407,0.8918401184082031,-9.769539874267577,0.7541735229492187,-0.42724609375,-4.5166015625,-2.0751953125
1780627013.9476407,0.93852705078125,-9.763554370117188,0.7541735229492187,-0.1220703125,-4.82177734375,-2.197265625
1780627013.9516406,0.9469067565917968,-9.743203656005859,0.7577648254394531,0.1220703125,-4.8828125,-2.62451171875
1780627013.9556406,0.9888052856445312,-9.764751470947266,0.70868369140625,0.0,-4.8828125,-3.0517578125
1780627013.9596405,1.0211270080566406,-9.752780462646484,0.6823474731445313,0.18310546875,-4.638671875,-3.0517578125
1780627013.9636405,1.0606313354492187,-9.728838446044922,0.6584054565429687,0.1220703125,-4.638671875,-3.23486328125
1780627013.9676404,1.0881646545410155,-9.771934075927733,0.6260837341308594,0.3662109375,-4.33349609375,-3.35693359375
1780627013.9716403,1.140837091064453,-9.757568865966796,0.6200982299804687,0.48828125,-4.0283203125,-3.90625
1780627013.9756403,1.1468225952148436,-9.752780462646484,0.6177040283203125,0.6103515625,-3.47900390625,-4.21142578125
1780627013.9796402,1.1707646118164061,-9.718064538574218,0.59376201171875,0.42724609375,-3.35693359375,-4.39453125
1780627013.9836402,1.1540052001953125,-9.708487731933593,0.5913678100585937,0.79345703125,-2.50244140625,-4.57763671875
1780627013.9876401,1.150413897705078,-9.694122521972655,0.5793968017578125,0.732421875,-1.77001953125,-4.69970703125
1780627013.99164,1.158793603515625,-9.65940659790039,0.5913678100585937,0.9765625,-0.8544921875,-4.8828125
1780627013.99564,1.1420341918945311,-9.616310968017578,0.6248866333007812,0.8544921875,-0.1220703125,-4.7607421875
1780627013.99964,1.1324573852539062,-9.600748657226562,0.6524199523925781,0.9765625,0.67138671875,-4.2724609375
1780627014.00364,1.0761936462402344,-9.592368951416015,0.6524199523925781,1.15966796875,1.708984375,-4.0283203125
1780627014.00764,1.052251629638672,-9.540893615722656,0.6667851623535156,1.3427734375,2.685546875,-3.90625
1780627014.0116398,1.0223241088867188,-9.50617769165039,0.7266402038574218,1.52587890625,3.2958984375,-3.11279296875
1780627014.0156398,0.9552864624023437,-9.5001921875,0.7721300354003906,1.708984375,4.08935546875,-2.25830078125
1780627014.0196397,0.8858546142578124,-9.491812481689452,0.824802471923828,1.89208984375,4.638671875,-1.52587890625
1780627014.0236397,0.8164227661132812,-9.469067565917967,0.8738836059570312,1.89208984375,5.0048828125,-0.42724609375
1780627014.0276396,0.737414111328125,-9.418789331054686,0.928950244140625,2.197265625,5.126953125,0.9765625
1780627014.0316396,0.6584054565429687,-9.446322650146485,0.9301473449707031,2.62451171875,5.2490234375,2.13623046875
1780627014.0356395,0.5889736083984375,-9.439140045166015,0.9445125549316405,2.5634765625,4.7607421875,3.11279296875
1780627014.0396395,0.5482721801757812,-9.453505255126952,0.9528922607421875,3.0517578125,4.82177734375,4.33349609375
1780627014.0436394,0.5087678527832031,-9.497797985839844,0.9816226806640624,2.99072265625,4.39453125,5.67626953125
1780627014.0476394,0.4896142395019531,-9.472658868408203,0.9935936889648437,3.23486328125,3.90625,6.89697265625
1780627014.0516393,0.46686932373046874,-9.482235675048827,1.0079588989257813,3.47900390625,3.2958984375,7.9345703125
1780627014.0556393,0.44891281127929683,-9.472658868408203,1.0007762939453124,3.5400390625,2.8076171875,8.72802734375
1780627014.0596392,0.4513070129394531,-9.495403784179686,0.9995791931152344,3.35693359375,2.197265625,9.33837890625
1780627014.0636392,0.43454760131835934,-9.497797985839844,1.0211270080566406,3.0517578125,1.8310546875,9.765625
1780627014.067639,0.45010991210937495,-9.520542901611327,1.052251629638672,2.44140625,1.0986328125,10.55908203125
1780627014.071639,0.43454760131835934,-9.561244329833984,1.0726023437499999,2.25830078125,0.48828125,10.80322265625
1780627014.075639,0.4584896179199218,-9.587580548095703,1.0965443603515623,1.77001953125,0.0,11.1083984375
1780627014.079639,0.49320554199218747,-9.603142858886718,1.13006318359375,1.46484375,-0.3662109375,11.16943359375
1780627014.083639,0.5339069702148437,-9.628281976318359,1.149216796875,1.46484375,-0.9765625,11.29150390625
1780627014.0876389,0.5853823059082031,-9.708487731933593,1.1635820068359375,0.732421875,-1.40380859375,11.41357421875
1780627014.0916388,0.6296750366210937,-9.779116680908203,1.1432312927246093,0.42724609375,-1.8310546875,10.92529296875
1780627014.0956388,0.6512228515624999,-9.867702142333984,1.112106671142578,0.18310546875,-2.0751953125,10.7421875
1780627014.0996387,0.70868369140625,-9.9215716796875,1.083376251220703,0.06103515625,-2.01416015625,10.009765625
1780627014.1036386,0.7541735229492187,-9.97903251953125,1.0654197387695312,-0.30517578125,-2.0751953125,9.521484375
1780627014.1076386,0.814028564453125,-10.049661468505859,1.0773907470703123,-0.1220703125,-2.3193359375,8.60595703125
1780627014.1116385,0.8487444885253905,-10.087968695068358,1.0342951171875,-0.1220703125,-2.25830078125,7.62939453125
1780627014.1156385,0.8858546142578124,-10.133458526611328,1.0127473022460938,0.06103515625,-2.25830078125,6.591796875
1780627014.1196384,0.8990227233886718,-10.174159954833984,0.9720458740234375,-0.06103515625,-2.25830078125,5.43212890625
1780627014.1236384,0.9325415466308593,-10.184933862304687,0.9457096557617187,-0.1220703125,-2.0751953125,4.45556640625
1780627014.1276383,0.9301473449707031,-10.150217938232421,0.9361328491210937,0.06103515625,-2.3193359375,3.47900390625
1780627014.1316383,0.9852139831542969,-10.141838232421874,0.9624690673828125,0.0,-2.13623046875,2.3193359375
1780627014.1356382,0.9947907897949219,-10.096348400878906,0.9971849914550781,0.18310546875,-2.01416015625,1.0986328125
1780627014.1396382,0.9947907897949219,-10.049661468505859,1.0594342346191405,0.3662109375,-1.52587890625,0.18310546875
1780627014.1436381,1.0366893188476562,-9.989806427001952,1.0953472595214844,0.30517578125,-1.3427734375,-0.9765625
1780627014.147638,1.0378864196777342,-9.932345587158203,1.158793603515625,0.67138671875,-1.15966796875,-1.220703125
1780627014.151638,1.0043675964355467,-9.907206469726562,1.2413935607910156,0.8544921875,-1.03759765625,-1.77001953125
1780627014.155638,0.9876081848144531,-9.868899243164062,1.3766659545898436,1.0986328125,-0.54931640625,-1.89208984375
1780627014.159638,0.968454571533203,-9.866505041503906,1.4784195251464842,1.3427734375,-0.42724609375,-1.953125
1780627014.1636379,0.9445125549316405,-9.830592016601562,1.5598223815917969,1.89208984375,-0.06103515625,-1.77001953125
1780627014.1676378,0.9277531433105468,-9.86411083984375,1.6148890197753905,2.25830078125,0.48828125,-1.28173828125
1780627014.1716378,0.833182177734375,-9.852139831542969,1.6424223388671875,2.99072265625,0.732421875,-0.244140625
1780627014.1756377,0.7852981445312499,-9.865307940673828,1.6400281372070311,3.35693359375,1.28173828125,0.67138671875
1780627014.1796377,0.7230489013671875,-9.871293444824218,1.6017209106445311,3.90625,1.64794921875,1.5869140625
1780627014.1836376,0.6643909606933593,-9.861716638183593,1.5837643981933593,4.33349609375,2.197265625,2.5634765625
1780627014.1876376,0.6260837341308594,-9.878476049804688,1.5610194824218748,4.638671875,2.99072265625,3.84521484375
1780627014.1916375,0.5398924743652344,-9.897629663085937,1.4903905334472656,5.06591796875,3.72314453125,5.9814453125
1780627014.1956375,0.5410895751953124,-9.868899243164062,1.4508862060546874,5.18798828125,4.5166015625,7.01904296875
1780627014.1996374,0.47644613037109373,-9.878476049804688,1.4329296936035156,5.31005859375,5.4931640625,7.8125
1780627014.2036374,0.4740519287109375,-9.840168823242188,1.4628572143554686,5.55419921875,6.40869140625,8.60595703125
1780627014.2076373,0.47644613037109373,-9.81862100830078,1.5275006591796874,6.16455078125,6.89697265625,9.6435546875
1780627014.2116373,0.4537012145996093,-9.827000714111328,1.618480322265625,6.40869140625,7.32421875,10.1318359375
1780627014.2156372,0.44412440795898434,-9.79348189086914,1.6723498596191406,6.89697265625,7.6904296875,10.43701171875
1780627014.2196372,0.43933600463867184,-9.797073193359374,1.6986860778808592,7.26318359375,7.4462890625,11.16943359375
1780627014.223637,0.41419688720703124,-9.77432827758789,1.707065783691406,7.62939453125,7.38525390625,11.77978515625
1780627014.227637,0.4070142822265625,-9.78629928588867,1.6998831787109374,7.6904296875,7.6904296875,11.65771484375
1780627014.231637,0.354341845703125,-9.809044201660155,1.6843208679199217,7.50732421875,7.568359375,11.53564453125
1780627014.235637,0.2932897033691406,-9.823409411621093,1.7022773803710936,7.62939453125,7.62939453125,11.3525390625
1780627014.239637,0.2693476867675781,-9.83897172241211,1.705868682861328,7.568359375,7.75146484375,10.6201171875
1780627014.2436368,0.16041151123046873,-9.86411083984375,1.7393875061035156,7.9345703125,7.8125,10.25390625
1780627014.2476368,0.1149216796875,-9.880870251464843,1.7298106994628906,8.056640625,7.75146484375,9.8876953125
1780627014.2516367,0.05746083984375,-9.871293444824218,1.668758557128906,8.23974609375,7.6904296875,9.58251953125
1780627014.2556367,-0.010773907470703125,-9.87727894897461,1.6148890197753905,8.7890625,8.11767578125,9.033203125
1780627014.2596366,-0.06943184814453125,-9.848548529052733,1.5777788940429687,8.97216796875,8.23974609375,8.85009765625
1780627014.2636366,-0.14724340209960937,-9.810241302490233,1.5227122558593749,9.33837890625,8.1787109375,8.6669921875
1780627014.2676365,-0.1975216369628906,-9.785102185058593,1.4784195251464842,9.70458984375,8.72802734375,8.9111328125
1780627014.2716365,-0.2765302917480469,-9.721655841064452,1.4425065002441406,10.009765625,8.9111328125,9.27734375
1780627014.2756364,-0.30047230834960936,-9.64623848876953,1.4137760803222656,10.19287109375,9.3994140625,10.009765625
1780627014.2796364,-0.3435679382324219,-9.572018237304688,1.4233528869628906,10.68115234375,9.82666015625,10.80322265625
1780627014.2836363,-0.3603273498535156,-9.478644372558593,1.4604630126953124,11.1083984375,10.25390625,12.39013671875
1780627014.2876363,-0.3758896606445312,-9.311050256347656,1.5191209533691405,12.02392578125,10.498046875,15.80810546875
1780627014.2916362,-0.40462008056640625,-9.27633433227539,1.5406687683105469,12.14599609375,10.3759765625,17.578125
1780627014.2956362,-0.41419688720703124,-9.229647399902344,1.5095441467285156,12.39013671875,10.25390625,20.01953125
1780627014.2996361,-0.3806780639648437,-9.209296685791015,1.4939818359375,12.51220703125,10.6201171875,22.0947265625
1780627014.303636,-0.33399113159179683,-9.209296685791015,1.4496891052246093,12.5732421875,10.92529296875,24.2919921875
1780627014.307636,-0.3435679382324219,-9.212887988281249,1.4329296936035156,12.63427734375,11.474609375,26.55029296875
1780627014.311636,-0.3184288208007812,-9.23802710571289,1.4041992736816404,12.939453125,11.8408203125,28.50341796875
1780627014.315636,-0.2645592834472656,-9.273940130615234,1.3634978454589843,13.0615234375,12.0849609375,30.45654296875
1780627014.3196359,-0.26216508178710934,-9.320627062988281,1.3287819213867187,13.12255859375,12.3291015625,32.16552734375
1780627014.3236358,-0.30047230834960936,-9.358934289550781,1.3192051147460937,13.0615234375,12.0849609375,33.26416015625
1780627014.3276358,-0.32441432495117184,-9.351751684570312,1.3359645263671873,12.87841796875,11.5966796875,33.935546875
1780627014.3316357,-0.31004911499023435,-9.405621221923827,1.3359645263671873,12.5732421875,11.3525390625,34.36279296875
1780627014.3356357,-0.38187516479492184,-9.458293658447266,1.3551181396484375,11.8408203125,9.46044921875,33.5693359375
1780627014.3396356,-0.4082113830566406,-9.455899456787108,1.3251906188964844,10.55908203125,7.99560546875,32.53173828125
1780627014.3436356,-0.49799394531249996,-9.460687860107422,1.274912384033203,9.27734375,5.9814453125,30.70068359375
1780627014.3476355,-0.5506663818359374,-9.457096557617186,1.2497732666015624,7.4462890625,4.2724609375,28.25927734375
1780627014.3516355,-0.565031591796875,-9.412803826904296,1.2102689392089843,5.31005859375,2.0751953125,25.5126953125
1780627014.3556354,-0.5674257934570313,-9.428366137695312,1.209071838378906,3.662109375,0.0,22.4609375
1780627014.3596354,-0.5829881042480468,-9.358934289550781,1.2617442749023438,1.953125,-2.01416015625,19.1650390625
1780627014.3636353,-0.5781997009277343,-9.379285003662108,1.2868833923339842,0.30517578125,-3.5400390625,16.17431640625
1780627014.3676353,-0.5482721801757812,-9.34696328125,1.2713210815429687,-1.03759765625,-4.8828125,13.73291015625
1780627014.3716352,-0.5231330627441406,-9.336189373779296,1.2797007873535156,-1.953125,-5.37109375,11.3525390625
1780627014.3756351,-0.4608838195800781,-9.363722692871093,1.24498486328125,-2.74658203125,-5.67626953125,9.6435546875
1780627014.379635,-0.45489831542968745,-9.3086560546875,1.2174515441894531,-3.5400390625,-5.92041015625,8.7890625
1780627014.383635,-0.40222587890625,-9.317035760498046,1.2282254516601563,-3.84521484375,-6.103515625,8.11767578125
1780627014.387635,-0.33758243408203126,-9.289502441406249,1.2413935607910156,-4.5166015625,-6.2255859375,7.99560546875
1780627014.391635,-0.2813186950683594,-9.285911138916015,1.2126631408691406,-4.8828125,-5.9814453125,9.033203125
1780627014.395635,-0.21428104858398436,-9.288305340576171,1.1815385192871093,-5.18798828125,-5.859375,10.1318359375
1780627014.3996348,-0.17477672119140625,-9.28351693725586,1.1444283935546875,-5.55419921875,-5.4931640625,11.53564453125
1780627014.4036348,-0.11013327636718749,-9.31464155883789,1.1348515869140625,-5.615234375,-4.7607421875,13.00048828125
1780627014.4076347,-0.062249243164062495,-9.350554583740234,1.177947216796875,-5.43212890625,-4.150390625,14.46533203125
1780627014.4116347,-0.031124621582031248,-9.397241516113281,1.1743559143066407,-5.4931640625,-3.90625,16.357421875
1780627014.4156346,0.02154781494140625,-9.45470235595703,1.1528080993652343,-5.18798828125,-3.35693359375,18.12744140625
1780627014.4196346,0.06464344482421874,-9.494206683349608,1.1372457885742187,-4.7607421875,-2.8076171875,19.6533203125
1780627014.4236345,0.10893617553710937,-9.561244329833984,1.1085153686523437,-4.57763671875,-2.38037109375,20.6298828125
1780627014.4276345,0.18435352783203124,-9.6151138671875,1.0965443603515623,-4.08935546875,-2.25830078125,21.66748046875
1780627014.4316344,0.2154781494140625,-9.70968483276367,1.0654197387695312,-3.2958984375,-1.64794921875,22.0947265625
1780627014.4356344,0.2454056701660156,-9.74799205932617,1.0474632263183594,-2.5634765625,-1.28173828125,22.216796875
1780627014.4396343,0.29927520751953124,-9.81263550415039,1.0295067138671874,-1.8310546875,-0.54931640625,21.78955078125
1780627014.4436343,0.3315969299316406,-9.835380419921874,0.9888052856445312,-0.91552734375,0.18310546875,21.42333984375
1780627014.4476342,0.37229835815429685,-9.866505041503906,0.9217676391601562,0.1220703125,1.28173828125,20.69091796875
1780627014.4516342,0.3591302490234375,-9.854534033203125,0.842758984375,0.9765625,2.62451171875,19.83642578125
1780627014.455634,0.36152445068359373,-9.86411083984375,0.7637503295898437,1.64794921875,4.08935546875,19.59228515625
1780627014.459634,0.34715924072265625,-9.841365924072266,0.7266402038574218,2.9296875,5.31005859375,19.04296875
1780627014.463634,0.3555389465332031,-9.816226806640625,0.7074865905761718,3.41796875,6.89697265625,19.287109375
1780627014.467634,0.35314474487304687,-9.714473236083984,0.74699091796875,4.150390625,7.6904296875,19.59228515625
1780627014.471634,0.3315969299316406,-9.686939916992188,0.7493851196289062,4.5166015625,8.30078125,20.01953125
1780627014.4756339,0.3016694091796875,-9.60194575805664,0.7769184387207031,4.82177734375,8.23974609375,20.93505859375
1780627014.4796338,0.24181436767578124,-9.503783489990234,0.7685387329101562,4.5166015625,7.8125,21.91162109375
1780627014.4836338,0.19512743530273435,-9.387664709472656,0.7841010437011718,3.96728515625,7.14111328125,22.52197265625
1780627014.4876337,0.18435352783203124,-9.350554583740234,0.8152256652832031,2.86865234375,6.89697265625,23.25439453125
1780627014.4916337,0.15562310791015624,-9.309853155517578,0.8990227233886718,1.89208984375,6.04248046875,23.92578125
1780627014.4956336,0.11133037719726561,-9.312247357177734,0.9876081848144531,0.3662109375,4.8828125,23.8037109375
1780627014.4996336,0.1005564697265625,-9.311050256347656,1.0726023437499999,-0.54931640625,4.0283203125,23.74267578125
1780627014.5036335,0.076614453125,-9.355342987060546,1.0905588562011719,-1.77001953125,2.8076171875,23.62060546875
1780627014.5076334,0.055066638183593745,-9.411606726074218,1.1085153686523437,-3.11279296875,1.953125,22.76611328125
1780627014.5116334,0.020350714111328123,-9.417592230224608,1.0953472595214844,-4.21142578125,0.67138671875,21.728515625
1780627014.5156333,0.03591302490234375,-9.46787046508789,1.0965443603515623,-5.126953125,-0.54931640625,20.5078125
1780627014.5196333,0.023942016601562498,-9.53131680908203,1.0630255371093749,-6.04248046875,-1.64794921875,19.22607421875
1780627014.5236332,0.03232172241210937,-9.599551556396484,1.025915411376953,-6.77490234375,-2.9296875,17.63916015625
1780627014.5276332,0.03591302490234375,-9.680954412841796,0.967257470703125,-7.38525390625,-4.0283203125,16.29638671875
1780627014.5316331,0.05386953735351562,-9.765948571777344,0.8774749084472656,-7.14111328125,-4.82177734375,14.404296875
1780627014.535633,0.0430956298828125,-9.828197814941406,0.8032546569824218,-7.4462890625,-4.8828125,13.24462890625
1780627014.539633,0.08499415893554688,-9.888052856445311,0.7134720947265625,-7.2021484375,-5.615234375,11.90185546875
1780627014.543633,0.12808978881835936,-9.891644158935547,0.6356605407714844,-7.14111328125,-5.92041015625,10.7421875
1780627014.547633,0.1640028137207031,-9.988609326171874,0.5494692810058593,-7.14111328125,-6.4697265625,9.521484375
1780627014.551633,0.181959326171875,-10.035296258544921,0.5123591552734374,-6.77490234375,-6.7138671875,8.4228515625
1780627014.5556328,0.2214636535644531,-10.036493359375,0.4908113403320312,-6.53076171875,-6.77490234375,7.8125
1780627014.5596328,0.2346317626953125,-10.036493359375,0.47285482788085936,-6.16455078125,-6.65283203125,6.9580078125
1780627014.5636327,0.24061726684570311,-10.070012182617187,0.48243163452148435,-5.615234375,-6.8359375,6.28662109375
1780627014.5676327,0.28371289672851563,-10.070012182617187,0.5099649536132812,-5.18798828125,-7.26318359375,5.615234375
1780627014.5716326,0.2561795776367187,-10.058041174316406,0.5195417602539062,-5.2490234375,-7.568359375,4.638671875
1780627014.5756326,0.23822306518554687,-10.031704956054687,0.51714755859375,-5.43212890625,-8.23974609375,3.2958984375
1780627014.5796325,0.2166752502441406,-9.968258612060547,0.5183446594238281,-6.103515625,-9.21630859375,2.197265625
1780627014.5836325,0.19393033447265623,-9.928754284667969,0.5805939025878906,-6.53076171875,-10.498046875,0.1220703125
1780627014.5876324,0.18315642700195311,-9.879673150634765,0.6428431457519531,-7.75146484375,-11.3525390625,-2.197265625
1780627014.5916324,0.1879448303222656,-9.82460651245117,0.6907271789550781,-8.85009765625,-12.8173828125,-4.2724609375
1780627014.5956323,0.1975216369628906,-9.82460651245117,0.7410054138183594,-10.009765625,-14.404296875,-7.26318359375
1780627014.5996323,0.16879121704101563,-9.764751470947266,0.7457938171386719,-11.41357421875,-15.5029296875,-10.009765625
1780627014.6036322,0.14484920043945312,-9.770736975097655,0.7158662963867187,-12.5732421875,-16.54052734375,-13.0615234375
1780627014.6076322,0.13766659545898435,-9.731232647705077,0.6679822631835937,-13.61083984375,-17.63916015625,-15.80810546875
1780627014.611632,0.15682020874023436,-9.71686743774414,0.6248866333007812,-14.58740234375,-18.4326171875,-18.12744140625
1780627014.615632,0.2214636535644531,-9.710881933593749,0.6069301208496093,-14.892578125,-19.287109375,-20.5078125
1780627014.619632,0.2346317626953125,-9.732429748535155,0.5482721801757812,-15.93017578125,-20.263671875,-22.64404296875
1780627014.623632,0.2920926025390625,-9.720458740234374,0.5027823486328125,-15.9912109375,-21.3623046875,-23.86474609375
1780627014.627632,0.2932897033691406,-9.690531219482422,0.4034229797363281,-16.41845703125,-21.6064453125,-24.90234375
1780627014.6316319,0.3124433166503906,-9.63307037963867,0.3028665100097656,-16.29638671875,-22.03369140625,-25.45166015625
1780627014.6356318,0.3651157531738281,-9.609128363037108,0.25258827514648435,-16.41845703125,-21.78955078125,-25.634765625
1780627014.6396317,0.4010287780761719,-9.599551556396484,0.25139117431640623,-16.357421875,-22.15576171875,-25.634765625
1780627014.6436317,0.507570751953125,-9.550470422363281,0.31962592163085934,-15.7470703125,-22.0947265625,-24.90234375
1780627014.6476316,0.5865794067382812,-9.554061724853515,0.3387795349121094,-15.625,-21.97265625,-23.98681640625
1780627014.6516316,0.6332663391113281,-9.537302313232422,0.373495458984375,-14.95361328125,-21.6064453125,-22.52197265625
1780627014.6556315,0.6703764648437499,-9.588777648925781,0.3938461730957031,-14.46533203125,-20.99609375,-21.484375
1780627014.6596315,0.7230489013671875,-9.624690673828125,0.36750995483398435,-13.671875,-20.3857421875,-20.08056640625
1780627014.6636314,0.7625532287597656,-9.680954412841796,0.3603273498535156,-13.12255859375,-20.01953125,-18.9208984375
1780627014.6676314,0.70868369140625,-9.665392102050781,0.30406361083984373,-12.451171875,-19.4091796875,-17.7001953125
1780627014.6716313,0.7589619262695312,-9.695319622802733,0.21188684692382811,-12.451171875,-18.4326171875,-16.4794921875
1780627014.6756313,0.7912836486816406,-9.710881933593749,0.1484405029296875,-11.16943359375,-17.88330078125,-14.6484375
1780627014.6796312,0.82360537109375,-9.743203656005859,0.055066638183593745,-10.986328125,-16.66259765625,-13.3056640625
1780627014.6836312,0.9205705383300781,-9.782707983398437,-0.011971008300781249,-10.1318359375,-15.56396484375,-12.3291015625
1780627014.6876311,1.0115502014160156,-9.828197814941406,-0.13407529296874998,-9.6435546875,-14.46533203125,-11.16943359375
1780627014.691631,1.0079588989257813,-9.81862100830078,-0.20350714111328125,-8.7890625,-13.24462890625,-9.94873046875
1780627014.695631,1.0474632263183594,-9.78629928588867,-0.23582886352539062,-8.11767578125,-11.41357421875,-8.85009765625
1780627014.699631,1.1109095703125,-9.836577520751952,-0.22026655273437498,-7.14111328125,-9.27734375,-7.50732421875
1780627014.703631,1.1540052001953125,-9.85692823486328,-0.1879448303222656,-6.2255859375,-8.056640625,-6.4697265625
1780627014.7076309,1.1133037719726562,-9.815029705810547,-0.1292868896484375,-5.43212890625,-6.53076171875,-5.31005859375
1780627014.7116308,1.121683477783203,-9.783905084228515,-0.0718260498046875,-4.57763671875,-5.4931640625,-3.72314453125
1780627014.7156308,1.071405242919922,-9.79348189086914,-0.044292730712890624,-3.60107421875,-5.0048828125,-1.89208984375
1780627014.7196307,1.0582371337890624,-9.80066449584961,0.02154781494140625,-2.86865234375,-4.8828125,-0.54931640625
1780627014.7236307,1.0666168395996094,-9.791087689208984,0.07900865478515624,-2.25830078125,-4.8828125,0.8544921875
1780627014.7276306,1.0678139404296874,-9.801861596679688,0.11851298217773437,-2.25830078125,-5.06591796875,1.89208984375
1780627014.7316306,1.0414777221679687,-9.791087689208984,0.14484920043945312,-1.77001953125,-5.859375,2.74658203125
1780627014.7356305,1.0366893188476562,-9.78031378173828,0.19153613281249998,-2.0751953125,-6.04248046875,3.72314453125
1780627014.7396305,1.0582371337890624,-9.785102185058593,0.20470424194335937,-2.3193359375,-6.8359375,3.90625
1780627014.7436304,1.061828436279297,-9.8449572265625,0.16879121704101563,-3.0517578125,-7.62939453125,3.7841796875
1780627014.7476304,1.0989385620117187,-9.866505041503906,0.11252747802734374,-3.41796875,-7.8125,3.5400390625
1780627014.7516303,1.0977414611816405,-9.874884747314452,0.08020575561523437,-3.90625,-7.568359375,2.9296875
1780627014.7556303,1.1168950744628905,-9.920374578857421,0.05386953735351562,-4.2724609375,-7.62939453125,2.38037109375
1780627014.7596302,1.0941501586914062,-9.938331091308592,0.03591302490234375,-4.150390625,-7.62939453125,2.0751953125
1780627014.7636302,1.1109095703125,-9.999383233642577,0.028730419921875,-4.2724609375,-7.26318359375,1.3427734375
1780627014.76763,1.1085153686523437,-10.014945544433592,0.011971008300781249,-3.84521484375,-6.9580078125,0.67138671875
1780627014.77163,1.0977414611816405,-10.059238275146484,0.028730419921875,-3.90625,-6.53076171875,0.244140625
1780627014.77563,1.0977414611816405,-10.111910711669921,0.047884033203124995,-3.35693359375,-6.34765625,0.1220703125
1780627014.77963,1.1133037719726562,-10.166977349853514,0.033518823242187495,-2.86865234375,-6.103515625,-0.06103515625
1780627014.78363,1.0977414611816405,-10.225635290527343,0.06584054565429687,-2.13623046875,-5.7373046875,-0.18310546875
1780627014.7876298,1.0558429321289062,-10.273519323730468,0.07302315063476562,-1.5869140625,-5.7373046875,-0.06103515625
1780627014.7916298,1.061828436279297,-10.259154113769531,0.09457096557617187,-0.3662109375,-5.859375,0.0
1780627014.7956297,1.083376251220703,-10.26035121459961,0.15322890625,0.732421875,-5.9814453125,-0.30517578125
1780627014.7996297,1.0893617553710937,-10.292672937011718,0.21787235107421873,2.50244140625,-6.65283203125,-0.42724609375
1780627014.8036296,1.1001356628417969,-10.259154113769531,0.2454056701660156,3.173828125,-7.32421875,-0.54931640625
1780627014.8076296,1.1456254943847655,-10.273519323730468,0.258573779296875,4.2724609375,-7.8125,-1.28173828125
1780627014.8116295,1.1851298217773436,-10.212467181396484,0.24779987182617186,5.0048828125,-7.99560546875,-1.5869140625
1780627014.8156295,1.2150573425292968,-10.133458526611328,0.23702596435546874,5.06591796875,-7.6904296875,-2.44140625
1780627014.8196294,1.246181964111328,-10.102333905029296,0.20470424194335937,5.0048828125,-7.38525390625,-3.0517578125
1780627014.8236294,1.2665326782226562,-10.059238275146484,0.1975216369628906,4.2724609375,-6.53076171875,-4.2724609375
1780627014.8276293,1.2904746948242187,-10.038887561035155,0.21906945190429686,3.96728515625,-5.43212890625,-5.615234375
1780627014.8316293,1.2892775939941405,-10.022128149414062,0.22385785522460935,3.35693359375,-4.150390625,-6.9580078125
1780627014.8356292,1.2509703674316406,-10.026916552734374,0.2442085693359375,2.74658203125,-2.86865234375,-7.9345703125
1780627014.8396292,1.2150573425292968,-10.038887561035155,0.2693476867675781,2.50244140625,-1.77001953125,-8.85009765625
1780627014.8436291,1.1145008728027344,-10.04846436767578,0.277727392578125,2.685546875,-0.54931640625,-9.70458984375
1780627014.847629,1.042674822998047,-10.109516510009765,0.258573779296875,2.44140625,0.3662109375,-10.07080078125
1780627014.851629,0.9624690673828125,-10.12507882080078,0.23104046020507812,3.173828125,1.46484375,-10.19287109375
1780627014.855629,0.8655039001464844,-10.140641131591796,0.2059013427734375,3.96728515625,2.197265625,-10.07080078125
1780627014.859629,0.7805097412109374,-10.111910711669921,0.1975216369628906,5.0048828125,2.74658203125,-9.6435546875
1780627014.8636289,0.699106884765625,-10.0748005859375,0.1580173095703125,6.2255859375,3.0517578125,-8.9111328125
1780627014.8676288,0.6500257507324219,-10.025719451904296,0.12210428466796874,7.38525390625,3.11279296875,-8.60595703125
1780627014.8716288,0.5865794067382812,-9.980229620361328,0.14125789794921875,8.60595703125,3.0517578125,-8.056640625
1780627014.8756287,0.5506663818359374,-9.891644158935547,0.16639701538085935,9.6435546875,2.74658203125,-7.32421875
1780627014.8796287,0.5147533569335937,-9.80066449584961,0.20350714111328125,10.07080078125,2.5634765625,-6.89697265625
1780627014.8836286,0.4644751220703125,-9.688137017822266,0.2645592834472656,10.55908203125,2.25830078125,-6.34765625
1780627014.8876286,0.46806642456054687,-9.592368951416015,0.3232172241210937,10.43701171875,1.708984375,-5.9814453125
1780627014.8916285,0.4417302062988281,-9.472658868408203,0.38786066894531246,10.25390625,1.46484375,-5.79833984375
1780627014.8956285,0.45489831542968745,-9.41639512939453,0.4429273071289062,9.94873046875,1.03759765625,-5.7373046875
1780627014.8996284,0.4369418029785156,-9.344569079589844,0.4560954162597656,9.1552734375,0.732421875,-5.9814453125
1780627014.9036283,0.4525041137695312,-9.277531433105468,0.43933600463867184,8.6669921875,0.8544921875,-6.04248046875
1780627014.9076283,0.4369418029785156,-9.223661895751952,0.4261678955078125,7.4462890625,0.732421875,-6.16455078125
1780627014.9116282,0.4333505004882812,-9.182960467529297,0.38786066894531246,6.4697265625,0.91552734375,-6.34765625
1780627014.9156282,0.40940848388671874,-9.143456140136719,0.3794809631347656,5.7373046875,1.28173828125,-6.7138671875
1780627014.9196281,0.40222587890625,-9.101557611083983,0.34117373657226563,4.8828125,1.708984375,-7.01904296875
1780627014.923628,0.4082113830566406,-9.068038787841797,0.316034619140625,3.84521484375,1.64794921875,-6.9580078125
1780627014.927628,0.4010287780761719,-9.05367357788086,0.3172317199707031,3.173828125,1.89208984375,-6.8359375
1780627014.931628,0.3758896606445312,-8.989030133056641,0.33758243408203126,2.44140625,2.0751953125,-6.4697265625
1780627014.935628,0.35194764404296874,-8.996212738037109,0.3268085266113281,1.40380859375,2.13623046875,-6.103515625
1780627014.939628,0.33039982910156246,-8.974664923095702,0.34835634155273437,0.67138671875,1.89208984375,-5.2490234375
1780627014.9436278,0.2825157958984375,-8.972270721435546,0.3794809631347656,-0.67138671875,2.0751953125,-4.45556640625
1780627014.9476278,0.28969840087890625,-8.979453326416015,0.4525041137695312,-1.5869140625,1.708984375,-3.662109375
1780627014.9516277,0.28969840087890625,-8.979453326416015,0.5482721801757812,-2.62451171875,1.64794921875,-2.9296875
1780627014.9556277,0.2741360900878906,-9.029731561279297,0.6212953308105469,-3.60107421875,1.15966796875,-2.13623046875
1780627014.9596276,0.2753331909179687,-9.10395181274414,0.7062894897460937,-4.5166015625,0.67138671875,-1.52587890625
1780627014.9636276,0.27174188842773433,-9.190143072509764,0.7936778503417968,-5.2490234375,0.48828125,-1.15966796875
1780627014.9676275,0.2753331909179687,-9.278728533935546,0.8750807067871094,-5.79833984375,0.54931640625,-0.67138671875
1780627014.9716275,0.2597708801269531,-9.388861810302734,0.939724151611328,-6.16455078125,0.244140625,0.06103515625
1780627014.9756274,0.2741360900878906,-9.463082061767578,0.9109937316894531,-6.4697265625,-0.06103515625,0.0
1780627014.9796274,0.23822306518554687,-9.60793126220703,0.9169792358398436,-6.34765625,-0.3662109375,0.30517578125
1780627014.9836273,0.21308394775390624,-9.67137760620117,0.8858546142578124,-6.28662109375,-0.732421875,0.42724609375
1780627014.9876273,0.19512743530273435,-9.765948571777344,0.8631096984863281,-5.79833984375,-1.3427734375,0.3662109375
1780627014.9916272,0.1879448303222656,-9.843760125732421,0.8631096984863281,-5.4931640625,-1.46484375,0.48828125
1780627014.9956272,0.15083470458984374,-9.903615167236328,0.8798691101074219,-4.638671875,-1.708984375,0.1220703125
1780627014.999627,0.1975216369628906,-9.93952819213867,0.843956085205078,-4.0283203125,-2.197265625,0.0
1780627015.003627,0.1867477294921875,-9.975441217041014,0.8643067993164062,-3.0517578125,-2.50244140625,0.30517578125
1780627015.007627,0.18914193115234373,-9.976638317871092,0.8583212951660156,-2.01416015625,-2.99072265625,0.06103515625
1780627015.011627,0.21308394775390624,-9.958681805419921,0.8295908752441405,-1.03759765625,-2.99072265625,0.06103515625
1780627015.015627,0.239420166015625,-9.934739788818359,0.8104372619628906,-0.3662109375,-3.11279296875,0.0
1780627015.0196269,0.26216508178710934,-9.93952819213867,0.8104372619628906,0.3662109375,-3.41796875,0.244140625
1780627015.0236268,0.28490999755859375,-9.888052856445311,0.8259995727539062,0.732421875,-3.60107421875,0.30517578125
1780627015.0276268,0.3315969299316406,-9.843760125732421,0.8499415893554687,1.0986328125,-3.96728515625,0.244140625
1780627015.0316267,0.3699041564941406,-9.81862100830078,0.9038111267089843,1.03759765625,-4.08935546875,0.244140625
1780627015.0356266,0.45489831542968745,-9.782707983398437,0.939724151611328,1.3427734375,-4.39453125,0.42724609375
1780627015.0396266,0.47884033203125,-9.76116016845703,0.9732429748535155,1.28173828125,-4.08935546875,0.91552734375
1780627015.0436265,0.5231330627441406,-9.767145672607422,0.9696516723632812,1.15966796875,-3.662109375,0.54931640625
1780627015.0476265,0.6105214233398437,-9.767145672607422,0.9516951599121093,1.15966796875,-3.41796875,0.91552734375
1780627015.0516264,0.6260837341308594,-9.823409411621093,0.9540893615722655,0.8544921875,-3.11279296875,1.15966796875
1780627015.0556264,0.63206923828125,-9.87009634399414,0.9253589416503906,0.6103515625,-2.38037109375,1.03759765625
1780627015.0596263,0.6560112548828124,-9.900023864746093,0.9014169250488281,0.244140625,-2.25830078125,0.8544921875
1780627015.0636263,0.6536170532226562,-9.964667309570311,0.833182177734375,0.0,-1.89208984375,0.8544921875
1780627015.0676262,0.6596025573730468,-9.981426721191406,0.7829039428710937,-0.18310546875,-1.46484375,0.3662109375
1780627015.0716262,0.6667851623535156,-10.01015714111328,0.7637503295898437,-0.244140625,-1.220703125,-0.06103515625
1780627015.0756261,0.6524199523925781,-10.041281762695311,0.7158662963867187,0.0,-0.79345703125,-0.732421875
1780627015.079626,0.6524199523925781,-10.073603485107421,0.7026981872558593,-0.244140625,-0.6103515625,-1.52587890625
1780627015.083626,0.6428431457519531,-10.056844073486328,0.6643909606933593,-0.18310546875,0.06103515625,-2.5634765625
1780627015.087626,0.5961562133789062,-10.052055670166014,0.6943184814453125,-0.1220703125,0.18310546875,-3.11279296875
1780627015.091626,0.5805939025878906,-9.988609326171874,0.7074865905761718,0.1220703125,1.03759765625,-4.33349609375
1780627015.0956259,0.5913678100585937,-9.961076007080077,0.7386112121582031,0.1220703125,1.03759765625,-5.2490234375
1780627015.0996258,0.5470750793457031,-9.880870251464843,0.7625532287597656,0.18310546875,1.52587890625,-6.4697265625
1780627015.1036258,0.5363011718749999,-9.816226806640625,0.7876923461914062,0.06103515625,1.64794921875,-7.080078125
1780627015.1076257,0.5410895751953124,-9.759963067626952,0.8080430603027343,-0.244140625,1.953125,-7.568359375
1780627015.1116257,0.5339069702148437,-9.719261639404296,0.8678981018066406,-0.79345703125,2.3193359375,-7.50732421875
1780627015.1156256,0.5781997009277343,-9.682151513671874,0.9313444458007812,-1.0986328125,2.13623046875,-7.6904296875
1780627015.1196256,0.5566518859863281,-9.642647186279296,0.9959878906249999,-1.28173828125,2.01416015625,-7.38525390625
1780627015.1236255,0.5327098693847656,-9.603142858886718,1.01514150390625,-1.52587890625,1.89208984375,-7.01904296875
1780627015.1276255,0.5159504577636719,-9.578003741455078,1.0570400329589844,-1.8310546875,2.197265625,-6.28662109375
1780627015.1316254,0.5243301635742187,-9.55645592651367,1.0510545288085937,-2.01416015625,2.01416015625,-5.7373046875
1780627015.1356254,0.5243301635742187,-9.576806640625,1.0330980163574217,-2.3193359375,2.0751953125,-4.82177734375
1780627015.1396253,0.5339069702148437,-9.592368951416015,1.0510545288085937,-2.44140625,2.25830078125,-3.90625
1780627015.1436253,0.49200844116210934,-9.604339959716796,1.0091559997558592,-2.38037109375,2.01416015625,-2.74658203125
1780627015.1476252,0.4740519287109375,-9.627084875488281,0.9828197814941406,-2.3193359375,2.25830078125,-2.197265625
1780627015.1516252,0.44412440795898434,-9.625887774658203,0.9097966308593749,-2.0751953125,2.685546875,-1.220703125
1780627015.155625,0.4537012145996093,-9.618705169677733,0.8954314208984374,-1.953125,2.9296875,-0.18310546875
1780627015.159625,0.4608838195800781,-9.597157354736327,0.8702923034667969,-1.708984375,3.35693359375,0.79345703125
1780627015.163625,0.4560954162597656,-9.566032733154296,0.8738836059570312,-1.220703125,3.35693359375,1.46484375
1780627015.167625,0.4800374328613281,-9.548076220703125,0.8547299926757812,-0.8544921875,3.5400390625,2.25830078125
1780627015.171625,0.4955997436523437,-9.564835632324218,0.82360537109375,-0.9765625,3.96728515625,2.9296875
1780627015.1756248,0.5219359619140624,-9.56962403564453,0.824802471923828,-0.91552734375,4.2724609375,3.662109375
1780627015.1796248,0.5602431884765625,-9.554061724853515,0.8762778076171874,-1.15966796875,4.57763671875,4.45556640625
1780627015.1836247,0.5746083984375,-9.586383447265625,0.9193734375,-1.8310546875,4.57763671875,4.94384765625
1780627015.1876247,0.6380547424316406,-9.605537060546874,0.9792284790039062,-1.89208984375,4.2724609375,5.43212890625
1780627015.1916246,0.6715735656738281,-9.6151138671875,0.9804255798339843,-2.44140625,4.33349609375,5.7373046875
1780627015.1956246,0.6811503723144531,-9.694122521972655,0.9732429748535155,-3.23486328125,4.45556640625,6.16455078125
1780627015.1996245,0.6619967590332031,-9.74799205932617,1.0031704956054688,-3.72314453125,5.06591796875,6.53076171875
1780627015.2036245,0.679953271484375,-9.788693487548828,1.0390835205078124,-4.39453125,5.43212890625,6.7138671875
1780627015.2076244,0.6308721374511719,-9.861716638183593,1.0330980163574217,-5.126953125,5.55419921875,7.01904296875
1780627015.2116244,0.6069301208496093,-9.922768780517577,1.0342951171875,-5.55419921875,5.92041015625,7.080078125
1780627015.2156243,0.5566518859863281,-9.92755718383789,0.9852139831542969,-5.9814453125,6.04248046875,7.26318359375
1780627015.2196243,0.5674257934570313,-10.00417163696289,0.9469067565917968,-6.28662109375,6.4697265625,7.26318359375
1780627015.2236242,0.5363011718749999,-10.044873065185547,0.9253589416503906,-6.77490234375,6.53076171875,7.38525390625
1780627015.2276242,0.4860229370117187,-10.079588989257813,0.9265560424804687,-7.01904296875,6.77490234375,7.50732421875
1780627015.2316241,0.4261678955078125,-10.121487518310547,0.9409212524414062,-7.2021484375,6.53076171875,7.38525390625
1780627015.235624,0.3699041564941406,-10.144232434082031,0.9852139831542969,-7.6904296875,5.79833984375,7.080078125
1780627015.239624,0.3172317199707031,-10.18373676147461,1.0319009155273438,-7.50732421875,5.43212890625,6.591796875
1780627015.243624,0.26336218261718747,-10.189722265624999,1.0558429321289062,-7.2021484375,5.0048828125,6.103515625
1780627015.247624,0.2059013427734375,-10.196904870605469,1.1324573852539062,-6.77490234375,3.96728515625,5.43212890625
1780627015.2516239,0.1388636962890625,-10.235212097167969,1.1480196960449218,-6.53076171875,2.86865234375,4.45556640625
1780627015.2556238,0.12569558715820311,-10.26035121459961,1.1552023010253905,-5.615234375,1.52587890625,3.84521484375
1780627015.2596238,0.09696516723632811,-10.296264239501953,1.1360486877441405,-4.7607421875,0.48828125,2.685546875
1780627015.2636237,0.09696516723632811,-10.346542474365235,1.0989385620117187,-3.662109375,-1.0986328125,1.77001953125
1780627015.2676237,0.11252747802734374,-10.401609112548828,1.0139444030761717,-2.86865234375,-2.5634765625,0.48828125
1780627015.2716236,0.15322890625,-10.407594616699217,0.939724151611328,-1.52587890625,-3.41796875,-0.9765625
1780627015.2756236,0.1580173095703125,-10.38724390258789,0.8391676818847655,-0.1220703125,-4.7607421875,-2.5634765625
1780627015.2796235,0.17238251953125,-10.369287390136718,0.7577648254394531,1.28173828125,-5.67626953125,-3.84521484375
1780627015.2836235,0.20470424194335937,-10.327388861083984,0.6919242797851562,2.5634765625,-6.65283203125,-5.2490234375
1780627015.2876234,0.23223756103515625,-10.228029492187499,0.6272808349609375,3.72314453125,-7.2021484375,-6.9580078125
1780627015.2916234,0.2549824768066406,-10.174159954833984,0.5698199951171875,4.69970703125,-7.8125,-8.1787109375
1780627015.2956233,0.29089550170898437,-10.073603485107421,0.5147533569335937,5.43212890625,-7.99560546875,-9.765625
1780627015.2996233,0.3136404174804687,-9.956287603759765,0.5003881469726562,6.04248046875,-8.11767578125,-10.7421875
1780627015.3036232,0.3387795349121094,-9.79946739501953,0.4991910461425781,6.04248046875,-7.87353515625,-11.8408203125
1780627015.3076231,0.38307226562499996,-9.688137017822266,0.5015852478027344,6.16455078125,-7.8125,-12.451171875
1780627015.311623,0.3699041564941406,-9.588777648925781,0.5135562561035156,5.92041015625,-7.50732421875,-12.63427734375
1780627015.315623,0.3950432739257812,-9.472658868408203,0.5327098693847656,5.7373046875,-6.9580078125,-13.12255859375
1780627015.319623,0.411802685546875,-9.368511096191405,0.5602431884765625,5.2490234375,-6.28662109375,-13.00048828125
1780627015.323623,0.4225765930175781,-9.327809667968749,0.622492431640625,5.0048828125,-5.67626953125,-12.5732421875
1780627015.327623,0.44891281127929683,-9.247603912353515,0.6619967590332031,4.57763671875,-4.82177734375,-12.14599609375
1780627015.3316228,0.4417302062988281,-9.22485899658203,0.6907271789550781,4.21142578125,-4.2724609375,-11.53564453125
1780627015.3356228,0.47285482788085936,-9.228450299072264,0.6967126831054687,3.84521484375,-3.47900390625,-10.19287109375
1780627015.3396227,0.46208092041015625,-9.178172064208983,0.6500257507324219,3.11279296875,-2.74658203125,-9.3994140625
1780627015.3436227,0.4010287780761719,-9.204508282470703,0.6344634399414062,2.86865234375,-1.953125,-8.11767578125
1780627015.3476226,0.38307226562499996,-9.21887349243164,0.5901707092285156,2.44140625,-1.3427734375,-6.8359375
1780627015.3516226,0.373495458984375,-9.249998114013671,0.5518634826660156,2.13623046875,-0.3662109375,-5.7373046875
1780627015.3556225,0.33399113159179683,-9.25718071899414,0.5506663818359374,1.708984375,0.1220703125,-4.8828125
1780627015.3596225,0.30885201416015623,-9.281122735595703,0.5303156677246094,1.64794921875,0.732421875,-3.84521484375
1780627015.3636224,0.2657563842773437,-9.320627062988281,0.5374982727050781,1.708984375,0.6103515625,-2.9296875
1780627015.3676224,0.22744915771484372,-9.338583575439452,0.5398924743652344,1.52587890625,0.9765625,-2.0751953125
1780627015.3716223,0.20231004028320312,-9.357737188720703,0.5626373901367188,1.220703125,0.91552734375,-1.28173828125
1780627015.3756223,0.1927332336425781,-9.393650213623046,0.5961562133789062,1.40380859375,0.8544921875,-0.9765625
1780627015.3796222,0.2166752502441406,-9.387664709472656,0.6368576416015624,1.40380859375,0.48828125,-0.48828125
1780627015.3836222,0.17477672119140625,-9.379285003662108,0.6703764648437499,1.46484375,0.42724609375,0.244140625
1780627015.387622,0.1484405029296875,-9.376890802001952,0.7074865905761718,1.64794921875,0.1220703125,0.79345703125
1780627015.391622,0.17118541870117188,-9.400832818603515,0.7433996154785156,1.3427734375,0.18310546875,1.3427734375
1780627015.395622,0.181959326171875,-9.427169036865234,0.7769184387207031,1.40380859375,-0.06103515625,2.0751953125
1780627015.399622,0.20829554443359374,-9.445125549316407,0.8212111694335937,1.52587890625,-0.18310546875,2.62451171875
1780627015.403622,0.21428104858398436,-9.434351641845703,0.8200140686035156,1.15966796875,-0.732421875,3.41796875
1780627015.4076219,0.22744915771484372,-9.449913952636718,0.7900865478515624,0.8544921875,-0.91552734375,4.0283203125
1780627015.4116218,0.2501940734863281,-9.494206683349608,0.7721300354003906,0.732421875,-1.03759765625,4.57763671875
1780627015.4156218,0.25139117431640623,-9.546879119873047,0.7697358337402344,0.3662109375,-1.0986328125,5.126953125
1780627015.4196217,0.28490999755859375,-9.597157354736327,0.7565677246093749,0.244140625,-1.28173828125,5.55419921875
1780627015.4236217,0.36391865234375,-9.67137760620117,0.7326257080078125,0.42724609375,-1.52587890625,5.859375
1780627015.4276216,0.38187516479492184,-9.728838446044922,0.7170633972167968,0.48828125,-1.28173828125,6.2255859375
1780627015.4316216,0.42018239135742186,-9.767145672607422,0.6943184814453125,0.732421875,-1.03759765625,5.9814453125
1780627015.4356215,0.41060558471679687,-9.830592016601562,0.6619967590332031,1.03759765625,-1.03759765625,5.859375
1780627015.4396214,0.4477157104492187,-9.87608184814453,0.6296750366210937,1.28173828125,-0.67138671875,6.04248046875
1780627015.4436214,0.46806642456054687,-9.91558617553711,0.5997475158691405,1.708984375,-0.18310546875,5.859375
1780627015.4476213,0.4752490295410156,-9.91558617553711,0.5758054992675781,1.8310546875,-0.18310546875,5.615234375
1780627015.4516213,0.4537012145996093,-9.900023864746093,0.6105214233398437,1.8310546875,0.18310546875,5.43212890625
1780627015.4556212,0.48243163452148435,-9.913191973876952,0.6572083557128906,1.89208984375,0.6103515625,5.0048828125
1780627015.4596212,0.42975919799804685,-9.854534033203125,0.6979097839355468,1.89208984375,0.8544921875,5.2490234375
1780627015.4636211,0.43574470214843747,-9.848548529052733,0.7541735229492187,1.89208984375,0.9765625,5.126953125
1780627015.467621,0.38666356811523434,-9.785102185058593,0.7553706237792969,1.77001953125,0.79345703125,5.06591796875
1780627015.471621,0.3687070556640625,-9.792284790039062,0.7242460021972655,1.46484375,0.79345703125,5.37109375
1780627015.475621,0.34715924072265625,-9.781510882568359,0.6967126831054687,1.5869140625,0.8544921875,5.43212890625
1780627015.479621,0.34715924072265625,-9.81263550415039,0.7110778930664062,1.40380859375,0.79345703125,5.859375
1780627015.483621,0.3447650390625,-9.801861596679688,0.6943184814453125,1.15966796875,0.67138671875,6.103515625
1780627015.4876208,0.3327940307617187,-9.82580361328125,0.6548141540527344,1.3427734375,0.42724609375,6.591796875
1780627015.4916208,0.3076549133300781,-9.882067352294921,0.6296750366210937,1.52587890625,0.0,6.9580078125
1780627015.4956207,0.3136404174804687,-9.885658654785155,0.5913678100585937,1.3427734375,-0.54931640625,6.9580078125
1780627015.4996207,0.3268085266113281,-9.931148486328125,0.5458779785156249,1.708984375,-1.220703125,7.01904296875
1780627015.5036206,0.3746925598144531,-9.983820922851562,0.5363011718749999,2.01416015625,-2.01416015625,6.89697265625
1780627015.5076206,0.40222587890625,-10.01015714111328,0.5303156677246094,3.0517578125,-3.2958984375,6.103515625
1780627015.5116205,0.5159504577636719,-9.993397729492187,0.5327098693847656,3.35693359375,-3.7841796875,4.8828125
1780627015.5156205,0.5327098693847656,-9.968258612060547,0.5410895751953124,3.72314453125,-4.08935546875,3.84521484375
1780627015.5196204,0.5805939025878906,-9.957484704589843,0.5494692810058593,3.84521484375,-4.21142578125,2.62451171875
1780627015.5236204,0.6260837341308594,-9.903615167236328,0.5614402893066406,3.662109375,-4.150390625,1.03759765625
1780627015.5276203,0.6272808349609375,-9.888052856445311,0.5758054992675781,3.173828125,-3.96728515625,-0.6103515625
1780627015.5316203,0.6428431457519531,-9.827000714111328,0.6117185241699218,2.50244140625,-3.5400390625,-2.25830078125
1780627015.5356202,0.6727706665039062,-9.789890588378906,0.6356605407714844,1.77001953125,-2.99072265625,-3.84521484375
1780627015.5396202,0.6572083557128906,-9.744400756835937,0.6368576416015624,1.03759765625,-2.685546875,-5.126953125
1780627015.54362,0.6500257507324219,-9.718064538574218,0.6368576416015624,0.1220703125,-2.44140625,-6.4697265625
1780627015.54762,0.594959112548828,-9.688137017822266,0.6260837341308594,-0.8544921875,-1.89208984375,-7.14111328125
1780627015.55162,0.5793968017578125,-9.651026892089844,0.6476315490722656,-1.708984375,-1.708984375,-7.9345703125
1780627015.55562,0.5662286926269531,-9.655815295410155,0.6404489440917969,-2.13623046875,-1.52587890625,-8.36181640625
1780627015.55962,0.5063736511230469,-9.670180505371093,0.6500257507324219,-2.50244140625,-1.0986328125,-8.85009765625
1780627015.5636199,0.47884033203125,-9.680954412841796,0.6272808349609375,-2.99072265625,-1.0986328125,-8.72802734375
1780627015.5676198,0.45010991210937495,-9.721655841064452,0.5973533142089843,-3.0517578125,-1.0986328125,-8.60595703125
1780627015.5716197,0.47165772705078124,-9.771934075927733,0.5434837768554687,-2.685546875,-0.91552734375,-8.23974609375
1780627015.5756197,0.45489831542968745,-9.811438403320311,0.5051765502929687,-2.25830078125,-1.0986328125,-7.87353515625
