timestamp,acc_x,acc_y,acc_z,gyro_x,gyro_y,gyro_z
1781664997.3397005,0.19153613281249998,0.05027823486328125,9.943119494628906,-0.1220703125,0.06103515625,0.0
1781664997.3429065,0.21308394775390624,0.044292730712890624,9.958681805419921,0.0,-0.244140625,0.3662109375
1781664997.3469064,0.20350714111328125,0.07900865478515624,9.96586441040039,-0.06103515625,-0.6103515625,-0.06103515625
1781664997.3508987,0.18076222534179687,0.033518823242187495,9.952696301269532,-0.18310546875,-0.6103515625,-0.244140625
1781664997.3548987,0.201112939453125,0.040701428222656245,9.931148486328125,-0.30517578125,-0.8544921875,-0.06103515625
1781664997.3588986,0.2442085693359375,0.0430956298828125,9.9215716796875,-0.244140625,-1.220703125,0.0
1781664997.3628986,0.2561795776367187,0.040701428222656245,9.919177478027343,0.0,-1.15966796875,-0.1220703125
1781664997.3668985,0.2980781066894531,0.02633621826171875,9.91558617553711,-0.06103515625,-1.15966796875,-0.244140625
1781664997.3708985,0.3136404174804687,0.0,9.9215716796875,0.0,-1.0986328125,-0.18310546875
1781664997.3748984,0.34237083740234375,0.047884033203124995,9.910797772216796,-0.1220703125,-0.91552734375,-0.06103515625
1781664997.3788984,0.316034619140625,0.040701428222656245,9.87727894897461,0.0,-0.732421875,-0.06103515625
1781664997.3828428,0.3447650390625,0.044292730712890624,9.883264453125,-0.18310546875,-0.30517578125,0.18310546875
1781664997.3868427,0.3220201232910156,0.0,9.89523546142578,0.0,0.06103515625,0.18310546875
1781664997.390841,0.33758243408203126,-0.011971008300781249,9.91558617553711,0.06103515625,0.1220703125,0.244140625
1781664997.394841,0.3232172241210937,0.009576806640625,9.913191973876952,0.06103515625,0.42724609375,0.244140625
1781664997.398841,0.3184288208007812,-0.020350714111328123,9.91438907470703,0.3662109375,0.18310546875,0.42724609375
1781664997.4028409,0.29568390502929687,-0.04189852905273437,9.938331091308592,0.18310546875,0.48828125,0.48828125
1781664997.4068408,0.25737667846679685,-0.023942016601562498,9.956287603759765,0.3662109375,0.732421875,0.42724609375
1781664997.4108407,0.25139117431640623,-0.02154781494140625,9.950302099609374,0.3662109375,0.67138671875,0.54931640625
1781664997.4148407,0.20350714111328125,-0.025139117431640625,9.95987890625,0.42724609375,0.67138671875,0.30517578125
1781664997.4188406,0.21308394775390624,0.033518823242187495,9.937133990478515,0.30517578125,0.06103515625,0.244140625
1781664997.4228406,0.19871873779296872,0.025139117431640625,9.907206469726562,0.48828125,0.06103515625,0.30517578125
1781664997.4268405,0.1975216369628906,0.022744915771484374,9.949104998779296,0.0,-0.06103515625,0.0
1781664997.4308405,0.1975216369628906,0.031124621582031248,9.962273107910155,0.0,-0.3662109375,0.18310546875
1781664997.4348404,0.16998831787109375,0.047884033203124995,9.956287603759765,-0.06103515625,-0.67138671875,-0.18310546875
1781664997.4388404,0.181959326171875,0.015562310791015624,9.955090502929687,-0.244140625,-0.91552734375,-0.244140625
1781664997.4428403,0.1927332336425781,0.04548983154296875,9.95389340209961,-0.18310546875,-1.0986328125,-0.6103515625
1781664997.4468403,0.19991583862304688,0.07422025146484375,9.903615167236328,0.18310546875,-1.220703125,-0.06103515625
1781664997.4508402,0.1867477294921875,0.003591302490234375,9.883264453125,0.06103515625,-1.03759765625,-0.1220703125
1781664997.4548402,0.22026655273437498,-0.01915361328125,9.928754284667969,-0.42724609375,-1.0986328125,-0.18310546875
1781664997.4588401,0.27174188842773433,0.017956512451171875,9.931148486328125,0.06103515625,-0.79345703125,0.0
1781664997.46284,0.28012159423828126,0.05626373901367187,9.866505041503906,0.30517578125,-1.15966796875,0.0
1781664997.46684,0.2885013000488281,0.06105214233398437,9.843760125732421,0.3662109375,-0.54931640625,0.0
1781664997.47084,0.2537853759765625,0.058657940673828124,9.90840357055664,0.1220703125,-0.30517578125,0.30517578125
1781664997.47484,0.2657563842773437,0.05746083984375,9.907206469726562,0.06103515625,0.06103515625,0.1220703125
1781664997.4788399,0.27892449340820313,0.055066638183593745,9.846154327392577,0.06103515625,0.30517578125,0.0
1781664997.4828398,0.2657563842773437,0.044292730712890624,9.861716638183593,0.1220703125,0.3662109375,0.244140625
1781664997.4868398,0.2454056701660156,0.031124621582031248,9.900023864746093,0.18310546875,0.54931640625,0.244140625
1781664997.4908206,0.2346317626953125,-0.0143652099609375,9.91438907470703,0.06103515625,0.42724609375,0.30517578125
1781664997.4948206,0.21428104858398436,-0.022744915771484374,9.910797772216796,-0.1220703125,0.0,0.244140625
1781664997.4988205,0.20470424194335937,0.020350714111328123,9.944316595458984,-0.06103515625,-0.1220703125,0.18310546875
1781664997.5028205,0.20231004028320312,0.013168109130859374,9.93354268798828,0.244140625,-0.06103515625,0.3662109375
1781664997.5068204,0.19632453613281248,0.011971008300781249,9.934739788818359,0.18310546875,-0.244140625,0.244140625
1781664997.5107946,0.20350714111328125,0.0143652099609375,9.957484704589843,0.06103515625,-0.30517578125,0.244140625
1781664997.5147731,0.2346317626953125,-0.027533319091796873,9.950302099609374,0.0,-0.54931640625,0.0
1781664997.518773,0.21428104858398436,-0.010773907470703125,9.922768780517577,-0.244140625,-0.91552734375,0.06103515625
1781664997.522757,0.2609679809570312,0.022744915771484374,9.919177478027343,-0.30517578125,-0.8544921875,-0.06103515625
1781664997.5267015,0.26815058593749996,0.022744915771484374,9.935936889648437,-0.06103515625,-0.9765625,-0.1220703125
1781664997.5307014,0.24301146850585936,-0.015562310791015624,9.932345587158203,-0.30517578125,-1.0986328125,-0.30517578125
1781664997.5347013,0.2549824768066406,-0.003591302490234375,9.92755718383789,-0.18310546875,-0.79345703125,-0.244140625
1781664997.5387013,0.3028665100097656,-0.00718260498046875,9.94671079711914,-0.18310546875,-1.03759765625,-0.42724609375
1781664997.5427012,0.3172317199707031,0.0047884033203125,9.929951385498047,0.06103515625,-0.48828125,-0.18310546875
1781664997.5467012,0.31004911499023435,0.02154781494140625,9.900023864746093,-0.18310546875,-0.54931640625,-0.244140625
1781664997.5507011,0.28730419921875,0.015562310791015624,9.94671079711914,0.1220703125,-0.8544921875,-0.06103515625
1781664997.554701,0.3076549133300781,0.011971008300781249,9.932345587158203,-0.06103515625,-0.18310546875,0.06103515625
1781664997.558701,0.2657563842773437,0.023942016601562498,9.904812268066406,0.244140625,-0.1220703125,0.244140625
1781664997.562701,0.2861070983886719,0.07781155395507812,9.906009368896484,0.30517578125,0.0,0.3662109375
1781664997.566701,0.3016694091796875,0.04908113403320312,9.89523546142578,0.30517578125,-0.06103515625,0.06103515625
1781664997.570701,0.29927520751953124,0.02154781494140625,9.911994873046874,0.30517578125,0.1220703125,0.48828125
1781664997.5747008,0.26336218261718747,0.022744915771484374,9.94671079711914,-0.1220703125,0.1220703125,0.244140625
1781664997.5787008,0.239420166015625,0.062249243164062495,9.938331091308592,0.0,-0.06103515625,0.42724609375
1781664997.5827007,0.2442085693359375,0.06703764648437499,9.92755718383789,0.06103515625,-0.06103515625,0.18310546875
1781664997.5867007,0.21906945190429686,0.027533319091796873,9.926360083007811,0.1220703125,-0.1220703125,0.244140625
1781664997.5907006,0.18435352783203124,0.0047884033203125,9.919177478027343,-0.06103515625,-0.18310546875,-0.06103515625
1781664997.5947006,0.18435352783203124,0.003591302490234375,9.932345587158203,-0.30517578125,-0.48828125,0.0
1781664997.5987005,0.19991583862304688,0.022744915771484374,9.922768780517577,-0.06103515625,-0.54931640625,-0.1220703125
1781664997.6027005,0.21068974609375,0.03232172241210937,9.935936889648437,-0.06103515625,-0.732421875,-0.18310546875
1781664997.6067004,0.21906945190429686,0.001197100830078125,9.919177478027343,-0.18310546875,-0.91552734375,0.0
1781664997.6107004,0.22505495605468748,0.00239420166015625,9.928754284667969,-0.18310546875,-0.91552734375,0.0
1781664997.6147003,0.2442085693359375,-0.02154781494140625,9.928754284667969,-0.18310546875,-0.8544921875,-0.06103515625
1781664997.6187003,0.24181436767578124,0.013168109130859374,9.904812268066406,-0.1220703125,-0.732421875,-0.06103515625
1781664997.6227002,0.24899697265624998,-0.011971008300781249,9.873687646484374,-0.244140625,-0.79345703125,-0.18310546875
1781664997.6267002,0.26336218261718747,0.0,9.884461553955077,0.06103515625,-0.732421875,0.1220703125
1781664997.6307,0.2561795776367187,-0.015562310791015624,9.900023864746093,-0.1220703125,-0.54931640625,0.0
1781664997.6347,0.27174188842773433,0.013168109130859374,9.922768780517577,0.244140625,-0.244140625,0.1220703125
1781664997.6387,0.29089550170898437,0.0143652099609375,9.89523546142578,0.30517578125,-0.30517578125,0.1220703125
1781664997.6427,0.2657563842773437,0.037110125732421874,9.90241806640625,0.06103515625,-0.18310546875,0.30517578125
1781664997.6467,0.22744915771484372,0.0383072265625,9.917980377197265,0.1220703125,-0.06103515625,0.244140625
1781664997.6506999,0.22026655273437498,0.005985504150390624,9.919177478027343,0.06103515625,0.1220703125,0.244140625
1781664997.6546998,0.22385785522460935,0.028730419921875,9.909600671386718,0.0,0.06103515625,0.1220703125
1781664997.6586998,0.23104046020507812,0.06943184814453125,9.925162982177733,0.18310546875,0.1220703125,-0.06103515625
1781664997.6626997,0.239420166015625,0.055066638183593745,9.943119494628906,0.0,-0.3662109375,0.1220703125
1781664997.6666996,0.229843359375,0.034715924072265626,9.958681805419921,-0.18310546875,-0.6103515625,0.30517578125
1781664997.6706996,0.24181436767578124,0.017956512451171875,9.962273107910155,0.0,-0.3662109375,-0.06103515625
1781664997.6746995,0.21068974609375,0.02154781494140625,9.94671079711914,-0.1220703125,-0.8544921875,0.1220703125
1781664997.6786995,0.22744915771484372,0.031124621582031248,9.928754284667969,0.18310546875,-0.79345703125,0.1220703125
1781664997.6826994,0.24181436767578124,0.040701428222656245,9.896432562255859,0.1220703125,-0.6103515625,0.06103515625
1781664997.6866994,0.2442085693359375,0.04189852905273437,9.910797772216796,-0.06103515625,-0.6103515625,-0.06103515625
1781664997.6906993,0.2813186950683594,0.044292730712890624,9.9215716796875,0.0,-0.67138671875,-0.06103515625
1781664997.6946993,0.30406361083984373,0.02154781494140625,9.925162982177733,0.0,-0.67138671875,0.06103515625
1781664997.6986992,0.277727392578125,0.0383072265625,9.919177478027343,-0.3662109375,-0.42724609375,-0.1220703125
1781664997.7026992,0.29089550170898437,0.015562310791015624,9.91558617553711,-0.3662109375,-0.42724609375,-0.1220703125
1781664997.7066991,0.2753331909179687,-0.01915361328125,9.89523546142578,-0.244140625,-0.244140625,0.06103515625
1781664997.710699,0.2920926025390625,-0.00718260498046875,9.894038360595703,-0.1220703125,-0.18310546875,0.06103515625
1781664997.714699,0.2753331909179687,-0.025139117431640625,9.922768780517577,-0.18310546875,-0.244140625,-0.18310546875
1781664997.718699,0.2765302917480469,-0.013168109130859374,9.90840357055664,0.3662109375,-0.3662109375,-0.1220703125
1781664997.722699,0.2825157958984375,-0.031124621582031248,9.945513696289062,0.244140625,-0.3662109375,0.18310546875
1781664997.7266989,0.3016694091796875,-0.03232172241210937,9.919177478027343,0.54931640625,-0.244140625,0.18310546875
1781664997.7306988,0.2825157958984375,0.0,9.926360083007811,-0.06103515625,-0.244140625,0.06103515625
1781664997.7346988,0.29089550170898437,-0.010773907470703125,9.913191973876952,0.18310546875,0.0,0.30517578125
1781664997.7386987,0.2705447875976562,-0.0143652099609375,9.900023864746093,0.1220703125,0.244140625,0.18310546875
1781664997.7426987,0.21787235107421873,0.005985504150390624,9.925162982177733,0.0,0.30517578125,0.244140625
1781664997.7466986,0.239420166015625,0.0143652099609375,9.929951385498047,0.06103515625,0.0,0.244140625
1781664997.7506986,0.27174188842773433,0.009576806640625,9.904812268066406,0.30517578125,0.06103515625,0.48828125
1781664997.7546985,0.24660277099609373,-0.001197100830078125,9.890447058105469,0.244140625,-0.06103515625,0.48828125
1781664997.7586985,0.2597708801269531,-0.0143652099609375,9.919177478027343,0.1220703125,0.06103515625,0.67138671875
1781664997.7626984,0.22744915771484372,-0.022744915771484374,9.974244116210937,0.1220703125,-0.06103515625,0.1220703125
1781664997.7666984,0.21308394775390624,0.00718260498046875,9.949104998779296,0.1220703125,-0.42724609375,0.3662109375
1781664997.7706983,0.25737667846679685,0.058657940673828124,9.867702142333984,0.244140625,-0.42724609375,0.3662109375
1781664997.7746983,0.2561795776367187,0.06464344482421874,9.889249957275391,0.18310546875,-0.244140625,0.244140625
1781664997.7786982,0.22744915771484372,0.022744915771484374,9.938331091308592,0.06103515625,-0.48828125,0.06103515625
1781664997.7826982,0.24061726684570311,0.022744915771484374,9.922768780517577,-0.3662109375,-0.3662109375,-0.30517578125
1781664997.786698,0.2753331909179687,0.028730419921875,9.892841259765625,-0.06103515625,-0.18310546875,0.06103515625
1781664997.790698,0.2885013000488281,0.08140285644531249,9.87608184814453,0.18310546875,-0.30517578125,0.1220703125
1781664997.794698,0.23822306518554687,0.028730419921875,9.926360083007811,-0.06103515625,-0.30517578125,0.18310546875
1781664997.798698,0.24061726684570311,-0.01915361328125,9.94072529296875,-0.1220703125,-0.54931640625,-0.06103515625
1781664997.802698,0.23104046020507812,0.028730419921875,9.974244116210937,-0.3662109375,-0.48828125,0.1220703125
1781664997.8066978,0.26815058593749996,0.03232172241210937,9.947907897949218,-0.1220703125,-0.6103515625,0.244140625
1781664997.8106978,0.26815058593749996,0.02633621826171875,9.926360083007811,0.30517578125,-0.1220703125,0.42724609375
1781664997.8146977,0.2597708801269531,-0.027533319091796873,9.896432562255859,0.244140625,-0.54931640625,0.18310546875
1781664997.8186977,0.23702596435546874,-0.037110125732421874,9.925162982177733,0.3662109375,-0.244140625,0.1220703125
1781664997.8226976,0.26336218261718747,-0.00239420166015625,9.928754284667969,0.0,-0.3662109375,0.0
1781664997.8266976,0.2549824768066406,0.037110125732421874,9.907206469726562,0.0,-0.30517578125,-0.1220703125
1781664997.8306975,0.2980781066894531,0.034715924072265626,9.907206469726562,0.18310546875,-0.3662109375,0.18310546875
1781664997.8346975,0.2657563842773437,0.0,9.923965881347655,0.0,-0.1220703125,0.0
1781664997.8386974,0.23104046020507812,-0.008379705810546874,9.941922393798828,-0.06103515625,-0.42724609375,0.06103515625
1781664997.8426974,0.21787235107421873,-0.040701428222656245,9.913191973876952,-0.18310546875,-0.06103515625,0.1220703125
1781664997.8466973,0.19033903198242186,0.001197100830078125,9.91438907470703,-0.30517578125,0.06103515625,0.18310546875
1781664997.8506973,0.2214636535644531,0.055066638183593745,9.922768780517577,0.48828125,-0.3662109375,0.30517578125
1781664997.8546972,0.28012159423828126,0.0526724365234375,9.929951385498047,0.6103515625,-0.1220703125,0.3662109375
1781664997.8586972,0.2609679809570312,-0.00718260498046875,9.97783541870117,0.244140625,-0.18310546875,0.3662109375
1781664997.8626971,0.24061726684570311,-0.0383072265625,9.980229620361328,-0.06103515625,-0.30517578125,0.48828125
1781664997.866697,0.2561795776367187,-0.022744915771484374,9.93354268798828,-0.06103515625,-0.18310546875,0.1220703125
1781664997.870697,0.2597708801269531,0.044292730712890624,9.85692823486328,0.0,-0.48828125,-0.1220703125
1781664997.874697,0.22026655273437498,0.05027823486328125,9.8449572265625,0.30517578125,-0.42724609375,-0.244140625
1781664997.878697,0.22026655273437498,0.03950432739257812,9.903615167236328,0.18310546875,-0.244140625,-0.30517578125
1781664997.8826969,0.19991583862304688,0.040701428222656245,9.964667309570311,0.1220703125,-0.244140625,-0.42724609375
1781664997.8866968,0.2645592834472656,0.06105214233398437,9.952696301269532,-0.244140625,-0.3662109375,-0.244140625
1781664997.8906968,0.2753331909179687,0.09576806640624999,9.95987890625,-0.244140625,-0.732421875,-0.06103515625
1781664997.8946967,0.2609679809570312,0.08020575561523437,9.950302099609374,0.06103515625,-0.8544921875,0.06103515625
1781664997.8986967,0.23343466186523437,-0.02154781494140625,9.94671079711914,-0.18310546875,-0.54931640625,0.18310546875
1781664997.9026966,0.21068974609375,-0.06344634399414062,9.94072529296875,-0.244140625,-0.48828125,0.0
1781664997.9066966,0.23104046020507812,-0.03950432739257812,9.888052856445311,-0.1220703125,-0.48828125,-0.06103515625
1781664997.9106965,0.23582886352539062,0.028730419921875,9.86291373901367,0.30517578125,-0.6103515625,-0.244140625
1781664997.9146965,0.2980781066894531,0.055066638183593745,9.874884747314452,0.42724609375,-0.54931640625,-0.06103515625
1781664997.9186964,0.29927520751953124,0.010773907470703125,9.968258612060547,0.244140625,-0.48828125,0.0
1781664997.9226964,0.29927520751953124,0.00239420166015625,9.98501802368164,-0.30517578125,-0.42724609375,0.06103515625
1781664997.9266963,0.3124433166503906,0.022744915771484374,9.95389340209961,-0.244140625,-0.6103515625,0.1220703125
1781664997.9306962,0.2825157958984375,0.0383072265625,9.898826763916015,-0.18310546875,-0.42724609375,-0.18310546875
1781664997.9346962,0.2501940734863281,0.001197100830078125,9.871293444824218,-0.244140625,-0.244140625,-0.1220703125
1781664997.9386961,0.2154781494140625,-0.04548983154296875,9.865307940673828,0.0,-0.06103515625,0.0
1781664997.942696,0.2454056701660156,-0.08020575561523437,9.883264453125,-0.244140625,0.0,0.06103515625
1781664997.946696,0.28371289672851563,-0.031124621582031248,9.885658654785155,0.1220703125,-0.30517578125,0.06103515625
1781664997.950696,0.2932897033691406,0.016759411621093748,9.929951385498047,0.42724609375,-0.54931640625,0.30517578125
1781664997.954696,0.29927520751953124,0.011971008300781249,9.94072529296875,0.48828125,-0.3662109375,0.3662109375
1781664997.958696,0.2597708801269531,-0.0430956298828125,9.955090502929687,0.3662109375,-0.30517578125,0.30517578125
1781664997.9626958,0.2262520568847656,-0.025139117431640625,9.955090502929687,0.244140625,-0.06103515625,0.42724609375
1781664997.9666958,0.258573779296875,-0.003591302490234375,9.90840357055664,0.244140625,0.1220703125,0.244140625
1781664997.9706957,0.2657563842773437,0.08140285644531249,9.858125335693359,0.18310546875,0.48828125,0.18310546875
1781664997.9746957,0.3016694091796875,0.062249243164062495,9.878476049804688,0.48828125,0.3662109375,0.0
1781664997.9786956,0.25258827514648435,0.020350714111328123,9.867702142333984,0.06103515625,0.3662109375,0.18310546875
1781664997.9826956,0.24301146850585936,-0.00718260498046875,9.890447058105469,-0.06103515625,0.30517578125,0.06103515625
1781664997.9866955,0.2442085693359375,0.033518823242187495,9.885658654785155,-0.06103515625,-0.06103515625,0.1220703125
1781664997.9906955,0.22266075439453123,0.08379705810546874,9.91558617553711,0.18310546875,-0.06103515625,0.1220703125
1781664997.9946954,0.19632453613281248,0.05626373901367187,9.986215124511718,0.0,-0.244140625,-0.06103515625
1781664997.9986954,0.19033903198242186,0.05386953735351562,10.029310754394531,0.0,-0.30517578125,0.0
1781664998.0026953,0.19871873779296872,-0.028730419921875,10.038887561035155,0.06103515625,-0.42724609375,-0.1220703125
1781664998.0066953,0.22505495605468748,0.04548983154296875,9.937133990478515,-0.30517578125,-0.67138671875,0.0
1781664998.0106952,0.21787235107421873,0.06105214233398437,9.883264453125,0.06103515625,-0.732421875,0.1220703125
1781664998.0146952,0.20350714111328125,0.029927520751953124,9.87009634399414,-0.06103515625,-0.79345703125,0.0
1781664998.018695,0.2214636535644531,0.009576806640625,9.907206469726562,0.244140625,-1.03759765625,0.1220703125
1781664998.022695,0.22505495605468748,0.025139117431640625,9.916783276367187,-0.06103515625,-0.67138671875,0.18310546875
1781664998.026695,0.258573779296875,0.05985504150390625,9.919177478027343,0.06103515625,-0.67138671875,0.1220703125
1781664998.030695,0.2813186950683594,0.058657940673828124,9.932345587158203,-0.06103515625,-0.30517578125,0.06103515625
1781664998.034695,0.26815058593749996,0.03591302490234375,9.920374578857421,-0.06103515625,-0.3662109375,0.18310546875
1781664998.0386949,0.296881005859375,-0.016759411621093748,9.935936889648437,-0.30517578125,-0.18310546875,0.06103515625
1781664998.0426948,0.2549824768066406,-0.027533319091796873,9.909600671386718,-0.30517578125,-0.54931640625,0.18310546875
1781664998.0466948,0.29089550170898437,-0.029927520751953124,9.868899243164062,-0.18310546875,0.06103515625,0.1220703125
1781664998.0506947,0.28012159423828126,-0.0047884033203125,9.858125335693359,0.18310546875,-0.18310546875,-0.06103515625
1781664998.0546947,0.23582886352539062,-0.028730419921875,9.890447058105469,0.30517578125,-0.244140625,0.18310546875
1781664998.0586946,0.2346317626953125,-0.001197100830078125,9.937133990478515,0.244140625,0.18310546875,0.1220703125
1781664998.0626945,0.25737667846679685,0.013168109130859374,9.958681805419921,0.1220703125,-0.244140625,0.18310546875
1781664998.0666945,0.2549824768066406,0.05027823486328125,9.97184991455078,0.244140625,0.0,0.30517578125
1781664998.0706944,0.2561795776367187,0.033518823242187495,9.943119494628906,0.0,-0.06103515625,0.244140625
1781664998.0746944,0.24899697265624998,0.05027823486328125,9.923965881347655,0.3662109375,-0.30517578125,0.30517578125
1781664998.0786943,0.2549824768066406,0.009576806640625,9.885658654785155,0.1220703125,-0.30517578125,0.244140625
1781664998.0826943,0.239420166015625,-0.011971008300781249,9.86291373901367,0.06103515625,-0.18310546875,0.244140625
1781664998.0866942,0.2501940734863281,-0.016759411621093748,9.909600671386718,0.244140625,-0.30517578125,-0.06103515625
1781664998.0906942,0.25258827514648435,0.02154781494140625,9.93354268798828,0.3662109375,-0.54931640625,0.0
1781664998.0946941,0.2741360900878906,0.037110125732421874,9.976638317871092,0.244140625,-0.54931640625,0.06103515625
1781664998.098694,0.25139117431640623,0.03232172241210937,9.988609326171874,0.244140625,-0.67138671875,-0.06103515625
1781664998.102694,0.2657563842773437,0.02154781494140625,9.968258612060547,-0.06103515625,-0.54931640625,-0.1220703125
1781664998.106694,0.2705447875976562,0.028730419921875,9.94072529296875,0.06103515625,-0.54931640625,0.0
1781664998.110694,0.24779987182617186,0.058657940673828124,9.87727894897461,0.0,-0.42724609375,-0.06103515625
1781664998.1146939,0.24899697265624998,0.01915361328125,9.858125335693359,0.06103515625,-0.48828125,-0.1220703125
1781664998.1186938,0.24660277099609373,0.027533319091796873,9.886855755615233,0.18310546875,-0.244140625,0.1220703125
1781664998.1226938,0.2741360900878906,0.015562310791015624,9.906009368896484,-0.06103515625,-0.06103515625,0.06103515625
1781664998.1266937,0.27174188842773433,0.00718260498046875,9.935936889648437,0.1220703125,-0.30517578125,0.18310546875
1781664998.1306937,0.258573779296875,0.027533319091796873,9.956287603759765,0.1220703125,-0.1220703125,0.48828125
1781664998.1346936,0.24181436767578124,0.029927520751953124,9.976638317871092,0.06103515625,-0.18310546875,0.244140625
1781664998.1386936,0.258573779296875,0.003591302490234375,9.938331091308592,0.0,0.1220703125,0.3662109375
1781664998.1426935,0.23822306518554687,-0.017956512451171875,9.916783276367187,-0.06103515625,-0.06103515625,0.06103515625
1781664998.1466935,0.22744915771484372,-0.008379705810546874,9.90840357055664,0.0,0.30517578125,0.06103515625
1781664998.1506934,0.22026655273437498,-0.022744915771484374,9.888052856445311,0.18310546875,0.1220703125,0.1220703125
1781664998.1546934,0.20231004028320312,-0.02154781494140625,9.90122096557617,-0.1220703125,-0.1220703125,0.06103515625
1781664998.1586933,0.20949264526367187,-0.017956512451171875,9.907206469726562,0.18310546875,-0.18310546875,0.06103515625
1781664998.1626933,0.20470424194335937,0.013168109130859374,9.937133990478515,-0.1220703125,-0.42724609375,0.0
1781664998.1666932,0.1975216369628906,0.0047884033203125,9.974244116210937,-0.18310546875,-0.48828125,-0.06103515625
1781664998.1706932,0.2166752502441406,0.0047884033203125,9.96586441040039,-0.06103515625,-0.42724609375,0.06103515625
1781664998.174693,0.2154781494140625,-0.010773907470703125,9.950302099609374,0.06103515625,-0.67138671875,0.1220703125
1781664998.178693,0.229843359375,-0.003591302490234375,9.91438907470703,0.06103515625,-0.48828125,-0.1220703125
1781664998.182693,0.21787235107421873,0.003591302490234375,9.89523546142578,-0.06103515625,-0.732421875,-0.18310546875
1781664998.186693,0.24181436767578124,-0.013168109130859374,9.885658654785155,0.1220703125,-0.732421875,-0.06103515625
1781664998.190693,0.277727392578125,0.0047884033203125,9.903615167236328,0.0,-0.79345703125,-0.1220703125
1781664998.1946929,0.26695348510742184,0.04189852905273437,9.906009368896484,0.1220703125,-0.48828125,-0.06103515625
1781664998.1986928,0.29448680419921874,0.017956512451171875,9.923965881347655,0.18310546875,-0.48828125,-0.18310546875
1781664998.2026927,0.2549824768066406,0.06823474731445311,9.91438907470703,-0.18310546875,-0.1220703125,-0.30517578125
1781664998.2066927,0.2813186950683594,0.058657940673828124,9.917980377197265,-0.1220703125,-0.18310546875,-0.06103515625
1781664998.2106926,0.3184288208007812,0.03591302490234375,9.89523546142578,0.0,-0.18310546875,0.1220703125
1781664998.2146926,0.2885013000488281,0.028730419921875,9.920374578857421,0.06103515625,-0.244140625,0.1220703125
1781664998.2186925,0.27174188842773433,0.02633621826171875,9.907206469726562,-0.06103515625,-0.30517578125,0.244140625
1781664998.2226925,0.2861070983886719,-0.0143652099609375,9.91438907470703,0.06103515625,-0.244140625,0.18310546875
1781664998.2266924,0.2561795776367187,-0.022744915771484374,9.926360083007811,0.1220703125,-0.48828125,0.18310546875
1781664998.2306924,0.27892449340820313,-0.017956512451171875,9.961076007080077,0.18310546875,-0.48828125,0.06103515625
1781664998.2346923,0.26216508178710934,-0.00239420166015625,9.929951385498047,0.1220703125,-0.244140625,0.3662109375
1781664998.2386923,0.24899697265624998,0.017956512451171875,9.956287603759765,0.30517578125,-0.42724609375,0.42724609375
1781664998.2426922,0.2442085693359375,0.003591302490234375,9.947907897949218,-0.1220703125,-0.3662109375,-0.1220703125
1781664998.2466922,0.24660277099609373,-0.0047884033203125,9.945513696289062,-0.18310546875,-0.48828125,-0.06103515625
1781664998.2506921,0.23343466186523437,-0.03950432739257812,9.911994873046874,-0.30517578125,-0.48828125,0.0
1781664998.254692,0.2346317626953125,-0.008379705810546874,9.897629663085937,-0.06103515625,-0.48828125,-0.1220703125
1781664998.258692,0.23104046020507812,-0.003591302490234375,9.910797772216796,0.0,-0.3662109375,-0.06103515625
1781664998.262692,0.23822306518554687,-0.010773907470703125,9.909600671386718,0.06103515625,-0.42724609375,-0.1220703125
1781664998.266692,0.24660277099609373,-0.016759411621093748,9.935936889648437,-0.06103515625,-0.6103515625,-0.06103515625
1781664998.2706919,0.21906945190429686,-0.01915361328125,9.94072529296875,0.1220703125,-0.42724609375,-0.1220703125
1781664998.2746918,0.21068974609375,-0.005985504150390624,9.9215716796875,-0.06103515625,-0.30517578125,0.06103515625
1781664998.2786918,0.23223756103515625,0.029927520751953124,9.91438907470703,0.1220703125,-0.244140625,0.0
1781664998.2826917,0.22385785522460935,-0.0047884033203125,9.89523546142578,0.0,-0.48828125,0.18310546875
1781664998.2866917,0.21428104858398436,0.034715924072265626,9.894038360595703,-0.06103515625,-0.3662109375,0.1220703125
1781664998.2906916,0.2059013427734375,0.04908113403320312,9.89523546142578,-0.06103515625,-0.3662109375,0.0
1781664998.2946916,0.1975216369628906,0.037110125732421874,9.920374578857421,0.18310546875,-0.06103515625,0.1220703125
1781664998.2986915,0.21188684692382811,0.07302315063476562,9.94671079711914,-0.06103515625,-0.06103515625,0.18310546875
1781664998.3026915,0.1867477294921875,0.06105214233398437,9.961076007080077,0.0,-0.244140625,0.0
1781664998.3066914,0.19512743530273435,0.051475335693359374,9.951499200439452,0.18310546875,-0.18310546875,0.1220703125
1781664998.3106914,0.18555062866210936,0.01915361328125,9.963470208740233,0.0,-0.54931640625,-0.06103515625
1781664998.3146913,0.201112939453125,0.03232172241210937,9.964667309570311,-0.06103515625,-0.67138671875,0.06103515625
1781664998.3186913,0.21906945190429686,0.03591302490234375,9.911994873046874,0.06103515625,-0.67138671875,0.06103515625
1781664998.3226912,0.2346317626953125,0.016759411621093748,9.852139831542969,0.244140625,-0.8544921875,-0.06103515625
1781664998.3266912,0.2657563842773437,0.008379705810546874,9.892841259765625,0.18310546875,-0.67138671875,0.1220703125
1781664998.330691,0.2561795776367187,0.015562310791015624,9.93354268798828,-0.18310546875,-0.79345703125,0.0
1781664998.334691,0.2932897033691406,0.02154781494140625,9.94671079711914,-0.1220703125,-0.8544921875,0.0
1781664998.338691,0.3064578125,0.008379705810546874,9.95389340209961,-0.18310546875,-0.732421875,0.1220703125
1781664998.342691,0.31962592163085934,0.003591302490234375,9.94671079711914,-0.30517578125,-0.6103515625,0.0
1781664998.346691,0.3172317199707031,-0.047884033203124995,9.904812268066406,-0.1220703125,-0.30517578125,-0.06103515625
1781664998.3506908,0.3280056274414062,-0.07302315063476562,9.888052856445311,-0.06103515625,-0.48828125,0.0
1781664998.3546908,0.33758243408203126,-0.06464344482421874,9.874884747314452,0.244140625,-0.1220703125,0.30517578125
1781664998.3586907,0.3603273498535156,-0.047884033203124995,9.879673150634765,0.48828125,0.0,0.0
1781664998.3626907,0.35673604736328124,-0.00718260498046875,9.883264453125,0.244140625,-0.1220703125,0.18310546875
1781664998.3666906,0.3555389465332031,0.00239420166015625,9.9215716796875,0.48828125,-0.06103515625,0.18310546875
1781664998.3706906,0.3124433166503906,-0.0047884033203125,9.957484704589843,0.06103515625,0.1220703125,0.48828125
1781664998.3746905,0.316034619140625,0.016759411621093748,9.961076007080077,0.1220703125,0.244140625,0.48828125
1781664998.3786905,0.3064578125,0.01915361328125,9.916783276367187,0.06103515625,0.0,0.18310546875
1781664998.3826904,0.2657563842773437,0.020350714111328123,9.890447058105469,0.1220703125,0.42724609375,0.30517578125
1781664998.3866904,0.2549824768066406,0.013168109130859374,9.90122096557617,0.244140625,0.3662109375,0.30517578125
1781664998.3906903,0.24301146850585936,0.008379705810546874,9.90122096557617,0.1220703125,0.18310546875,0.244140625
1781664998.3946903,0.23104046020507812,0.016759411621093748,9.919177478027343,0.18310546875,0.06103515625,0.1220703125
1781664998.3986902,0.2059013427734375,0.033518823242187495,9.944316595458984,0.18310546875,-0.3662109375,0.30517578125
1781664998.4026902,0.1927332336425781,0.062249243164062495,9.958681805419921,0.06103515625,-0.48828125,0.18310546875
1781664998.4066901,0.16639701538085935,0.04189852905273437,9.975441217041014,0.0,-0.3662109375,-0.18310546875
1781664998.41069,0.14604630126953125,0.047884033203124995,9.95987890625,0.18310546875,-0.54931640625,-0.244140625
1781664998.41469,0.15442600708007811,0.03950432739257812,9.920374578857421,-0.18310546875,-0.3662109375,-0.06103515625
1781664998.41869,0.19033903198242186,0.04548983154296875,9.900023864746093,0.18310546875,-0.6103515625,-0.1220703125
1781664998.42269,0.1867477294921875,0.04908113403320312,9.87727894897461,0.1220703125,-0.8544921875,-0.06103515625
1781664998.4266899,0.18076222534179687,0.029927520751953124,9.898826763916015,-0.18310546875,-0.54931640625,0.0
1781664998.4306898,0.20949264526367187,0.06703764648437499,9.904812268066406,0.1220703125,-0.67138671875,0.18310546875
1781664998.4346898,0.1879448303222656,0.037110125732421874,9.937133990478515,-0.18310546875,-0.6103515625,-0.06103515625
1781664998.4386897,0.20350714111328125,0.016759411621093748,9.932345587158203,0.06103515625,-0.1220703125,0.06103515625
1781664998.4426897,0.2154781494140625,0.027533319091796873,9.962273107910155,-0.06103515625,-0.48828125,0.0
1781664998.4466896,0.19871873779296872,-0.028730419921875,9.935936889648437,-0.1220703125,-0.30517578125,0.244140625
1781664998.4506896,0.229843359375,-0.010773907470703125,9.925162982177733,0.06103515625,-0.48828125,0.244140625
1781664998.4546895,0.22744915771484372,-0.013168109130859374,9.906009368896484,0.18310546875,-0.1220703125,0.244140625
1781664998.4586895,0.229843359375,-0.029927520751953124,9.90241806640625,0.42724609375,-0.6103515625,0.18310546875
1781664998.4626894,0.2166752502441406,-0.027533319091796873,9.907206469726562,0.244140625,-0.30517578125,0.0
1781664998.4666893,0.23343466186523437,-0.022744915771484374,9.923965881347655,0.1220703125,-0.244140625,0.18310546875
1781664998.4706893,0.2442085693359375,-0.005985504150390624,9.96586441040039,-0.06103515625,-0.244140625,0.06103515625
1781664998.4746892,0.2693476867675781,0.025139117431640625,9.970652813720703,0.1220703125,-0.244140625,0.06103515625
1781664998.4786892,0.2753331909179687,0.015562310791015624,9.968258612060547,-0.1220703125,-0.54931640625,0.06103515625
1781664998.4826891,0.2765302917480469,-0.0047884033203125,9.943119494628906,-0.06103515625,-0.3662109375,-0.06103515625
1781664998.486689,0.2861070983886719,0.00239420166015625,9.931148486328125,0.06103515625,-0.6103515625,0.0
1781664998.490689,0.2753331909179687,-0.016759411621093748,9.907206469726562,0.0,-0.67138671875,0.06103515625
1781664998.494689,0.26815058593749996,-0.01915361328125,9.934739788818359,0.3662109375,-0.6103515625,0.0
1781664998.498689,0.3076549133300781,0.02633621826171875,9.91438907470703,0.1220703125,-0.8544921875,-0.244140625
1781664998.502689,0.34835634155273437,0.034715924072265626,9.898826763916015,0.42724609375,-0.79345703125,-0.244140625
1781664998.5066888,0.3315969299316406,0.05027823486328125,9.90840357055664,0.244140625,-0.79345703125,-0.18310546875
1781664998.5106888,0.35314474487304687,0.07781155395507812,9.920374578857421,0.0,-0.54931640625,-0.1220703125
1781664998.5146887,0.354341845703125,0.06464344482421874,9.91438907470703,-0.18310546875,-0.42724609375,0.0
1781664998.5186887,0.32920272827148434,0.037110125732421874,9.926360083007811,-0.06103515625,-0.1220703125,0.1220703125
1781664998.5226886,0.3280056274414062,0.0143652099609375,9.911994873046874,-0.18310546875,0.0,0.06103515625
1781664998.5266886,0.3184288208007812,0.0047884033203125,9.91558617553711,-0.1220703125,0.0,0.1220703125
1781664998.5306885,0.2813186950683594,-0.023942016601562498,9.892841259765625,0.18310546875,-0.1220703125,0.06103515625
1781664998.5346885,0.2597708801269531,-0.022744915771484374,9.920374578857421,0.244140625,0.244140625,0.1220703125
1781664998.5386884,0.2645592834472656,-0.015562310791015624,9.916783276367187,0.3662109375,0.06103515625,0.0
1781664998.5426884,0.2597708801269531,0.011971008300781249,9.91438907470703,0.244140625,0.06103515625,-0.06103515625
1781664998.5466883,0.21428104858398436,0.00239420166015625,9.90840357055664,0.54931640625,0.06103515625,0.18310546875
1781664998.5506883,0.20470424194335937,0.031124621582031248,9.929951385498047,0.48828125,-0.1220703125,0.18310546875
1781664998.5546882,0.17597382202148437,0.04668693237304687,9.91558617553711,0.06103515625,0.0,-0.06103515625
1781664998.5586882,0.17597382202148437,0.027533319091796873,9.91558617553711,-0.18310546875,-0.18310546875,0.0
1781664998.562688,0.19153613281249998,0.03232172241210937,9.909600671386718,0.0,-0.1220703125,0.0
1781664998.566688,0.17118541870117188,0.029927520751953124,9.945513696289062,-0.244140625,-0.3662109375,0.18310546875
1781664998.570688,0.14604630126953125,-0.013168109130859374,9.934739788818359,-0.18310546875,-0.6103515625,0.0
1781664998.574688,0.16041151123046873,-0.029927520751953124,9.93354268798828,-0.18310546875,-0.244140625,-0.06103515625
1781664998.578688,0.1640028137207031,-0.037110125732421874,9.917980377197265,0.244140625,-0.91552734375,-0.06103515625
1781664998.5826879,0.17477672119140625,-0.025139117431640625,9.91438907470703,0.3662109375,-0.8544921875,-0.06103515625
1781664998.5866878,0.20231004028320312,-0.0143652099609375,9.93354268798828,0.244140625,-0.67138671875,0.0
1781664998.5906878,0.22744915771484372,-0.0047884033203125,9.941922393798828,0.42724609375,-0.8544921875,-0.244140625
1781664998.5946877,0.2657563842773437,0.044292730712890624,9.92755718383789,0.18310546875,-0.54931640625,0.0
1781664998.5986876,0.2825157958984375,0.06344634399414062,9.909600671386718,0.06103515625,-0.48828125,0.06103515625
1781664998.6026876,0.2657563842773437,0.058657940673828124,9.906009368896484,0.1220703125,-0.3662109375,0.1220703125
1781664998.6066875,0.28969840087890625,0.04548983154296875,9.920374578857421,-0.244140625,-0.244140625,0.18310546875
1781664998.6106875,0.2753331909179687,0.04189852905273437,9.897629663085937,0.1220703125,-0.1220703125,0.30517578125
1781664998.6146874,0.316034619140625,0.022744915771484374,9.907206469726562,-0.1220703125,-0.06103515625,0.244140625
1781664998.6186874,0.3124433166503906,0.0,9.910797772216796,0.1220703125,0.0,0.18310546875
1781664998.6226873,0.316034619140625,0.0143652099609375,9.938331091308592,0.0,0.06103515625,0.244140625
1781664998.6266873,0.31962592163085934,0.00718260498046875,9.923965881347655,0.06103515625,-0.18310546875,0.30517578125
1781664998.6306872,0.2885013000488281,0.008379705810546874,9.935936889648437,0.244140625,-0.1220703125,0.18310546875
1781664998.6346872,0.28012159423828126,0.08140285644531249,9.943119494628906,0.30517578125,0.0,0.06103515625
1781664998.6386871,0.2813186950683594,0.062249243164062495,9.941922393798828,0.244140625,-0.06103515625,0.18310546875
1781664998.642687,0.2705447875976562,0.027533319091796873,9.99220062866211,-0.18310546875,-0.1220703125,-0.06103515625
1781664998.646687,0.2980781066894531,0.02633621826171875,9.99220062866211,-0.1220703125,-0.244140625,-0.18310546875
1781664998.650687,0.30885201416015623,0.06943184814453125,9.92755718383789,-0.06103515625,-0.48828125,0.18310546875
1781664998.654687,0.277727392578125,-0.0047884033203125,9.866505041503906,0.18310546875,-0.79345703125,-0.06103515625
1781664998.6586869,0.2825157958984375,-0.04668693237304687,9.920374578857421,-0.06103515625,-0.48828125,0.1220703125
1781664998.6626868,0.24660277099609373,-0.08259995727539061,9.925162982177733,-0.06103515625,-0.54931640625,0.18310546875
1781664998.6666868,0.2537853759765625,-0.05985504150390625,9.90840357055664,0.1220703125,-0.48828125,-0.06103515625
1781664998.6706867,0.2825157958984375,0.009576806640625,9.911994873046874,0.06103515625,-0.42724609375,0.06103515625
1781664998.6746867,0.2741360900878906,0.010773907470703125,9.92755718383789,0.244140625,-0.54931640625,-0.18310546875
1781664998.6786866,0.258573779296875,-0.0047884033203125,9.904812268066406,0.0,-0.30517578125,0.06103515625
1781664998.6826866,0.22744915771484372,-0.009576806640625,9.906009368896484,-0.06103515625,-0.1220703125,0.1220703125
1781664998.6866865,0.20829554443359374,0.013168109130859374,9.884461553955077,-0.244140625,0.30517578125,0.18310546875
1781664998.6906865,0.2454056701660156,0.040701428222656245,9.879673150634765,0.18310546875,0.244140625,0.0
1781664998.6946864,0.18076222534179687,0.003591302490234375,9.885658654785155,0.06103515625,0.3662109375,0.1220703125
1781664998.6986864,0.16280571289062498,0.027533319091796873,9.929951385498047,0.30517578125,0.244140625,0.244140625
1781664998.7026863,0.14125789794921875,0.033518823242187495,9.958681805419921,0.18310546875,0.30517578125,0.30517578125
1781664998.7066863,0.16519991455078123,0.031124621582031248,9.956287603759765,0.0,0.0,0.3662109375
1781664998.7106862,0.17357962036132812,0.044292730712890624,9.955090502929687,0.1220703125,-0.1220703125,0.3662109375
1781664998.7146862,0.15083470458984374,0.06105214233398437,9.947907897949218,0.1220703125,-0.244140625,0.3662109375
1781664998.718686,0.14484920043945312,0.009576806640625,9.93952819213867,0.30517578125,-0.42724609375,0.18310546875
1781664998.722686,0.16879121704101563,0.017956512451171875,9.93952819213867,0.18310546875,-0.8544921875,0.06103515625
1781664998.726686,0.20350714111328125,0.03591302490234375,9.925162982177733,0.0,-0.732421875,0.1220703125
1781664998.730686,0.24181436767578124,0.04668693237304687,9.907206469726562,0.18310546875,-0.8544921875,-0.1220703125
1781664998.734686,0.24779987182617186,0.05746083984375,9.920374578857421,0.18310546875,-0.79345703125,0.18310546875
1781664998.7386858,0.23582886352539062,0.011971008300781249,9.963470208740233,0.0,-0.67138671875,-0.06103515625
1781664998.7426858,0.2932897033691406,-0.0047884033203125,9.943119494628906,-0.244140625,-0.8544921875,0.1220703125
1781664998.7466857,0.3028665100097656,-0.009576806640625,9.919177478027343,-0.1220703125,-0.732421875,0.244140625
1781664998.7506857,0.3136404174804687,-0.016759411621093748,9.896432562255859,0.18310546875,-0.79345703125,0.06103515625
1781664998.7546856,0.3172317199707031,-0.03591302490234375,9.892841259765625,0.30517578125,-0.30517578125,0.06103515625
1781664998.7586856,0.28490999755859375,-0.04668693237304687,9.890447058105469,0.30517578125,-0.06103515625,0.18310546875
1781664998.7626855,0.2813186950683594,-0.047884033203124995,9.882067352294921,0.1220703125,0.0,0.18310546875
1781664998.7666855,0.28490999755859375,-0.005985504150390624,9.906009368896484,0.18310546875,0.3662109375,0.1220703125
1781664998.7706854,0.239420166015625,-0.010773907470703125,9.87727894897461,0.18310546875,0.30517578125,0.18310546875
1781664998.7746854,0.26695348510742184,0.023942016601562498,9.919177478027343,0.30517578125,0.30517578125,0.3662109375
1781664998.7786853,0.2920926025390625,0.04668693237304687,9.974244116210937,0.0,-0.1220703125,0.1220703125
1781664998.7826853,0.2885013000488281,0.0047884033203125,10.002974536132811,-0.3662109375,-0.42724609375,-0.06103515625
1781664998.7866852,0.24061726684570311,0.001197100830078125,9.988609326171874,-0.30517578125,-0.54931640625,0.3662109375
1781664998.7906852,0.24660277099609373,0.00239420166015625,9.93354268798828,-0.244140625,-0.79345703125,0.30517578125
1781664998.7946851,0.19033903198242186,0.0,9.886855755615233,0.18310546875,-0.732421875,0.1220703125
1781664998.798685,0.1879448303222656,0.001197100830078125,9.890447058105469,0.30517578125,-0.8544921875,-0.1220703125
1781664998.802685,0.19871873779296872,-0.00718260498046875,9.90840357055664,0.48828125,-0.79345703125,-0.244140625
1781664998.806685,0.2657563842773437,0.04908113403320312,9.9215716796875,0.1220703125,-0.79345703125,-0.42724609375
1781664998.810685,0.30885201416015623,0.11133037719726561,9.92755718383789,0.0,-0.8544921875,-0.06103515625
1781664998.8146849,0.3076549133300781,0.08978256225585937,9.928754284667969,-0.06103515625,-0.48828125,0.1220703125
1781664998.8186848,0.28490999755859375,0.09217676391601562,9.90241806640625,-0.42724609375,-0.79345703125,0.3662109375
1781664998.8226848,0.229843359375,0.03591302490234375,9.885658654785155,-0.42724609375,-0.244140625,0.244140625
1781664998.8266847,0.21787235107421873,0.023942016601562498,9.87608184814453,-0.18310546875,0.0,0.1220703125
1781664998.8306847,0.22026655273437498,-0.010773907470703125,9.866505041503906,0.06103515625,0.18310546875,0.06103515625
1781664998.8346846,0.2537853759765625,-0.02154781494140625,9.888052856445311,0.18310546875,0.30517578125,0.244140625
1781664998.8386846,0.2549824768066406,-0.017956512451171875,9.917980377197265,0.244140625,0.244140625,0.0
1781664998.8426845,0.23702596435546874,-0.010773907470703125,9.943119494628906,0.244140625,0.06103515625,0.06103515625
1781664998.8466845,0.2561795776367187,-0.001197100830078125,9.95389340209961,0.48828125,0.0,0.30517578125
1781664998.8506844,0.21308394775390624,0.011971008300781249,9.934739788818359,0.30517578125,-0.30517578125,0.244140625
1781664998.8546844,0.12808978881835936,0.025139117431640625,9.929951385498047,0.18310546875,-0.18310546875,0.244140625
1781664998.8586843,0.14604630126953125,0.017956512451171875,9.904812268066406,0.1220703125,0.0,-0.06103515625
1781664998.8626842,0.16998831787109375,0.005985504150390624,9.92755718383789,0.1220703125,-0.18310546875,-0.18310546875
1781664998.8666842,0.20709844360351562,0.0047884033203125,9.91558617553711,0.0,-0.244140625,0.06103515625
1781664998.8706841,0.2166752502441406,-0.00718260498046875,9.926360083007811,-0.06103515625,-0.67138671875,0.0
1781664998.874684,0.24660277099609373,0.008379705810546874,9.928754284667969,-0.1220703125,-0.732421875,0.30517578125
1781664998.878684,0.2645592834472656,-0.022744915771484374,9.935936889648437,0.0,-0.91552734375,0.244140625
1781664998.882684,0.23702596435546874,-0.040701428222656245,9.949104998779296,-0.06103515625,-1.03759765625,0.06103515625
1781664998.886684,0.23582886352539062,-0.0383072265625,9.929951385498047,0.1220703125,-0.9765625,0.0
1781664998.890684,0.2765302917480469,-0.00239420166015625,9.897629663085937,0.06103515625,-0.8544921875,-0.18310546875
1781664998.8946838,0.2753331909179687,0.0383072265625,9.911994873046874,0.1220703125,-0.67138671875,-0.244140625
1781664998.8986838,0.3220201232910156,0.044292730712890624,9.90241806640625,0.18310546875,-0.54931640625,-0.18310546875
1781664998.9026837,0.3591302490234375,0.08499415893554688,9.894038360595703,-0.1220703125,-0.42724609375,0.06103515625
1781664998.9066837,0.354341845703125,0.08259995727539061,9.89523546142578,-0.18310546875,-0.30517578125,0.244140625
1781664998.9106836,0.34237083740234375,0.06344634399414062,9.909600671386718,-0.18310546875,-0.3662109375,0.30517578125
1781664998.9146836,0.3028665100097656,0.02633621826171875,9.907206469726562,-0.18310546875,-0.18310546875,0.3662109375
1781664998.9186835,0.2825157958984375,0.020350714111328123,9.90122096557617,0.0,0.06103515625,0.06103515625
1781664998.9226835,0.2693476867675781,0.0047884033203125,9.911994873046874,0.30517578125,0.1220703125,0.06103515625
1781664998.9266834,0.2765302917480469,-0.005985504150390624,9.926360083007811,0.1220703125,0.244140625,0.0
1781664998.9306834,0.3112462158203125,0.031124621582031248,9.947907897949218,0.06103515625,0.244140625,0.06103515625
1781664998.9346833,0.30526071166992186,0.033518823242187495,9.9215716796875,0.06103515625,-0.1220703125,0.0
1781664998.9386833,0.28371289672851563,0.03591302490234375,9.925162982177733,0.06103515625,-0.18310546875,0.30517578125
1781664998.9426832,0.23343466186523437,0.02154781494140625,9.928754284667969,0.1220703125,-0.3662109375,0.1220703125
1781664998.9466832,0.23223756103515625,0.005985504150390624,9.922768780517577,0.1220703125,-0.42724609375,0.244140625
1781664998.950683,0.19393033447265623,0.022744915771484374,9.923965881347655,0.0,-0.1220703125,0.18310546875
1781664998.954683,0.22744915771484372,0.008379705810546874,9.91558617553711,0.0,-0.42724609375,-0.30517578125
1781664998.958683,0.23104046020507812,0.017956512451171875,9.929951385498047,-0.06103515625,-0.30517578125,-0.18310546875
1781664998.962683,0.2214636535644531,0.008379705810546874,9.926360083007811,-0.244140625,-0.18310546875,0.0
1781664998.966683,0.2501940734863281,-0.015562310791015624,9.943119494628906,-0.18310546875,-0.6103515625,-0.1220703125
1781664998.9706829,0.23582886352539062,-0.02154781494140625,9.919177478027343,0.06103515625,-0.79345703125,0.30517578125
1781664998.9746828,0.22385785522460935,-0.044292730712890624,9.925162982177733,0.06103515625,-0.6103515625,-0.1220703125
1781664998.9786828,0.21188684692382811,-0.00718260498046875,9.920374578857421,0.244140625,-0.6103515625,-0.18310546875
1781664998.9826827,0.17357962036132812,-0.0383072265625,9.897629663085937,0.3662109375,-0.244140625,-0.06103515625
1781664998.9866827,0.19632453613281248,-0.001197100830078125,9.889249957275391,0.18310546875,-0.30517578125,-0.30517578125
1781664998.9906826,0.23104046020507812,0.02154781494140625,9.911994873046874,0.244140625,0.0,-0.1220703125
1781664998.9946826,0.25258827514648435,0.06344634399414062,9.91438907470703,-0.06103515625,-0.244140625,0.06103515625
1781664998.9986825,0.24660277099609373,0.09217676391601562,9.911994873046874,0.1220703125,-0.244140625,0.244140625
1781664999.0026824,0.22744915771484372,0.076614453125,9.919177478027343,-0.244140625,-0.244140625,0.3662109375
1781664999.0066824,0.21787235107421873,0.031124621582031248,9.93354268798828,-0.244140625,0.06103515625,0.244140625
1781664999.0106823,0.2154781494140625,0.01915361328125,9.913191973876952,0.0,-0.1220703125,0.3662109375
1781664999.0146823,0.20709844360351562,0.011971008300781249,9.89523546142578,0.1220703125,-0.18310546875,0.244140625
1781664999.0186822,0.2549824768066406,0.04189852905273437,9.93354268798828,0.18310546875,-0.06103515625,-0.18310546875
1781664999.0226822,0.24181436767578124,0.058657940673828124,9.964667309570311,0.06103515625,-0.3662109375,0.0
1781664999.0266821,0.2657563842773437,0.051475335693359374,9.973047015380859,0.06103515625,-0.244140625,-0.06103515625
1781664999.030682,0.258573779296875,0.05746083984375,9.951499200439452,-0.06103515625,-0.79345703125,0.1220703125
1781664999.034682,0.26216508178710934,0.06823474731445311,9.919177478027343,0.06103515625,-0.54931640625,0.0
1781664999.038682,0.23104046020507812,0.0430956298828125,9.919177478027343,-0.06103515625,-0.8544921875,-0.1220703125
1781664999.042682,0.22744915771484372,0.027533319091796873,9.910797772216796,0.06103515625,-0.79345703125,-0.1220703125
1781664999.046682,0.26216508178710934,0.013168109130859374,9.91438907470703,0.06103515625,-0.42724609375,-0.06103515625
1781664999.0506818,0.296881005859375,0.028730419921875,9.923965881347655,-0.06103515625,-0.30517578125,-0.18310546875
1781664999.0546818,0.2885013000488281,0.017956512451171875,9.894038360595703,-0.06103515625,-0.48828125,-0.06103515625
1781664999.0586817,0.30406361083984373,0.008379705810546874,9.917980377197265,-0.06103515625,-0.732421875,0.18310546875
1781664999.0626817,0.31483751831054685,-0.027533319091796873,9.92755718383789,-0.18310546875,-0.6103515625,0.1220703125
1781664999.0666816,0.3112462158203125,-0.028730419921875,9.891644158935547,0.1220703125,-0.54931640625,0.18310546875
1781664999.0706816,0.3172317199707031,-0.022744915771484374,9.903615167236328,0.06103515625,-0.30517578125,0.18310546875
1781664999.0746815,0.31004911499023435,-0.031124621582031248,9.898826763916015,0.1220703125,-0.1220703125,0.18310546875
1781664999.0786815,0.2980781066894531,-0.025139117431640625,9.898826763916015,0.30517578125,0.0,0.244140625
1781664999.0826814,0.33039982910156246,-0.022744915771484374,9.90241806640625,0.30517578125,0.06103515625,0.1220703125
1781664999.0866814,0.31004911499023435,-0.001197100830078125,9.904812268066406,0.0,0.18310546875,0.1220703125
1781664999.0906813,0.29089550170898437,0.01915361328125,9.928754284667969,0.06103515625,0.18310546875,0.1220703125
1781664999.0946813,0.27293898925781246,0.023942016601562498,9.928754284667969,0.06103515625,0.06103515625,0.06103515625
1781664999.0986812,0.258573779296875,0.022744915771484374,9.923965881347655,0.1220703125,0.1220703125,0.3662109375
1781664999.1026812,0.20829554443359374,0.027533319091796873,9.917980377197265,0.244140625,0.1220703125,0.18310546875
1781664999.106681,0.19393033447265623,0.022744915771484374,9.917980377197265,0.18310546875,0.1220703125,0.244140625
1781664999.110681,0.1867477294921875,0.031124621582031248,9.944316595458984,0.1220703125,-0.06103515625,0.30517578125
1781664999.114681,0.18076222534179687,0.03591302490234375,9.945513696289062,0.0,-0.30517578125,0.244140625
1781664999.118681,0.21308394775390624,0.055066638183593745,9.952696301269532,0.06103515625,-0.244140625,0.244140625
1781664999.122681,0.18435352783203124,0.06823474731445311,9.950302099609374,0.1220703125,-0.3662109375,0.06103515625
1781664999.1266809,0.17357962036132812,0.05027823486328125,9.935936889648437,0.06103515625,-0.48828125,0.1220703125
1781664999.1306808,0.21906945190429686,0.03591302490234375,9.925162982177733,-0.1220703125,-0.67138671875,0.0
1781664999.1346807,0.18914193115234373,0.051475335693359374,9.919177478027343,-0.18310546875,-0.6103515625,-0.1220703125
1781664999.1386807,0.1975216369628906,0.047884033203124995,9.897629663085937,0.18310546875,-0.67138671875,-0.06103515625
1781664999.1426806,0.23104046020507812,0.027533319091796873,9.926360083007811,-0.18310546875,-0.6103515625,-0.06103515625
1781664999.1466806,0.24301146850585936,0.029927520751953124,9.928754284667969,-0.3662109375,-0.42724609375,0.1220703125
1781664999.1506805,0.27174188842773433,0.008379705810546874,9.935936889648437,-0.30517578125,-0.67138671875,0.1220703125
1781664999.1546805,0.24660277099609373,0.010773907470703125,9.926360083007811,0.0,-0.732421875,-0.06103515625
1781664999.1586804,0.25139117431640623,0.0143652099609375,9.89523546142578,-0.3662109375,-0.48828125,0.18310546875
1781664999.1626804,0.24899697265624998,-0.003591302490234375,9.916783276367187,0.18310546875,-0.48828125,-0.06103515625
1781664999.1666803,0.24660277099609373,-0.023942016601562498,9.90840357055664,0.0,-0.30517578125,-0.06103515625
1781664999.1706803,0.27293898925781246,-0.003591302490234375,9.941922393798828,0.0,-0.30517578125,0.06103515625
1781664999.1746802,0.26815058593749996,-0.0143652099609375,9.935936889648437,-0.06103515625,0.06103515625,0.3662109375
1781664999.1786802,0.28012159423828126,-0.003591302490234375,9.950302099609374,0.244140625,0.06103515625,0.18310546875
1781664999.1826801,0.31004911499023435,-0.02154781494140625,9.94671079711914,-0.06103515625,-0.244140625,0.30517578125
1781664999.18668,0.3136404174804687,-0.025139117431640625,9.931148486328125,0.0,-0.30517578125,0.30517578125
1781664999.19068,0.27293898925781246,-0.003591302490234375,9.934739788818359,0.30517578125,-0.18310546875,0.30517578125
1781664999.19468,0.2657563842773437,0.01915361328125,9.910797772216796,0.244140625,-0.30517578125,0.244140625
1781664999.19868,0.2885013000488281,0.010773907470703125,9.91558617553711,0.1220703125,-0.1220703125,0.0
1781664999.2026799,0.2753331909179687,0.013168109130859374,9.928754284667969,0.06103515625,-0.06103515625,0.0
1781664999.2066798,0.2825157958984375,-0.008379705810546874,9.93952819213867,0.18310546875,-0.3662109375,-0.1220703125
1781664999.2106798,0.2753331909179687,0.0143652099609375,9.951499200439452,0.06103515625,-0.1220703125,-0.06103515625
1781664999.2146797,0.29448680419921874,0.017956512451171875,9.963470208740233,0.0,-0.6103515625,0.244140625
1781664999.2186797,0.28012159423828126,0.04189852905273437,9.928754284667969,0.0,-0.30517578125,-0.06103515625
1781664999.2226796,0.2741360900878906,0.022744915771484374,9.892841259765625,-0.1220703125,-0.48828125,0.18310546875
1781664999.2266796,0.22744915771484372,0.04548983154296875,9.87727894897461,0.244140625,-0.30517578125,-0.1220703125
1781664999.2306795,0.26216508178710934,0.011971008300781249,9.87727894897461,0.0,-0.18310546875,0.1220703125
1781664999.2346795,0.277727392578125,0.0047884033203125,9.909600671386718,0.1220703125,-0.1220703125,0.0
1781664999.2386794,0.28012159423828126,0.020350714111328123,9.931148486328125,-0.18310546875,-0.244140625,0.06103515625
1781664999.2426794,0.239420166015625,0.01915361328125,9.931148486328125,0.0,-0.06103515625,0.30517578125
1781664999.2466793,0.2597708801269531,0.0383072265625,9.90840357055664,0.1220703125,-0.30517578125,0.18310546875
1781664999.2506793,0.23223756103515625,0.022744915771484374,9.892841259765625,0.1220703125,0.0,-0.06103515625
1781664999.2546792,0.19512743530273435,-0.00239420166015625,9.890447058105469,0.0,-0.06103515625,0.06103515625
1781664999.2586792,0.201112939453125,0.0,9.906009368896484,0.30517578125,-0.1220703125,0.0
1781664999.262679,0.1879448303222656,0.031124621582031248,9.886855755615233,0.0,-0.06103515625,0.06103515625
1781664999.266679,0.18435352783203124,0.0383072265625,9.903615167236328,0.18310546875,-0.18310546875,0.0
1781664999.270679,0.1975216369628906,0.03591302490234375,9.928754284667969,-0.06103515625,-0.1220703125,0.18310546875
1781664999.274679,0.19153613281249998,0.03232172241210937,9.962273107910155,0.18310546875,-0.1220703125,-0.06103515625
1781664999.278679,0.21068974609375,0.013168109130859374,9.967061511230469,-0.1220703125,-0.48828125,0.244140625
1781664999.2826788,0.18555062866210936,0.02154781494140625,9.951499200439452,0.0,-0.54931640625,0.18310546875
1781664999.2866788,0.17836802368164062,0.001197100830078125,9.941922393798828,0.06103515625,-0.6103515625,0.1220703125
1781664999.2906787,0.20709844360351562,-0.001197100830078125,9.922768780517577,-0.1220703125,-0.6103515625,0.0
1781664999.2946787,0.18555062866210936,0.009576806640625,9.923965881347655,-0.06103515625,-0.42724609375,0.244140625
1781664999.2986786,0.23582886352539062,-0.02154781494140625,9.938331091308592,-0.30517578125,-0.67138671875,-0.06103515625
1781664999.3026786,0.23702596435546874,0.0143652099609375,9.93354268798828,0.0,-0.67138671875,0.0
1781664999.3066785,0.2657563842773437,0.03591302490234375,9.945513696289062,0.06103515625,-0.9765625,-0.06103515625
1781664999.3106785,0.26815058593749996,-0.0143652099609375,9.926360083007811,-0.244140625,-0.732421875,0.1220703125
1781664999.3146784,0.2645592834472656,0.011971008300781249,9.920374578857421,0.0,-0.79345703125,0.0
1781664999.3186784,0.27293898925781246,-0.0047884033203125,9.900023864746093,0.1220703125,-0.48828125,0.0
1781664999.3226783,0.28012159423828126,0.020350714111328123,9.896432562255859,-0.06103515625,-0.48828125,0.1220703125
1781664999.3266783,0.2920926025390625,-0.00239420166015625,9.90241806640625,0.18310546875,-0.06103515625,0.1220703125
1781664999.3306782,0.296881005859375,0.013168109130859374,9.932345587158203,0.1220703125,-0.244140625,0.18310546875
1781664999.3346782,0.29927520751953124,0.03232172241210937,9.928754284667969,0.1220703125,-0.18310546875,0.18310546875
1781664999.3386781,0.277727392578125,0.011971008300781249,9.920374578857421,0.1220703125,-0.18310546875,0.18310546875
1781664999.342678,0.2813186950683594,0.03232172241210937,9.93952819213867,0.06103515625,-0.244140625,0.18310546875
1781664999.346678,0.26695348510742184,0.023942016601562498,9.925162982177733,0.244140625,-0.1220703125,0.0
1781664999.350678,0.2549824768066406,0.008379705810546874,9.925162982177733,0.42724609375,0.0,0.3662109375
1781664999.354678,0.2442085693359375,-0.010773907470703125,9.91438907470703,0.18310546875,0.0,-0.06103515625
1781664999.3586779,0.27174188842773433,0.011971008300781249,9.90840357055664,0.18310546875,0.1220703125,0.1220703125
1781664999.3626778,0.2741360900878906,0.015562310791015624,9.926360083007811,0.0,-0.244140625,0.06103515625
1781664999.3666778,0.26815058593749996,0.028730419921875,9.909600671386718,0.1220703125,-0.06103515625,0.244140625
1781664999.3706777,0.229843359375,0.027533319091796873,9.922768780517577,0.1220703125,-0.42724609375,0.244140625
1781664999.3746777,0.2442085693359375,0.02154781494140625,9.937133990478515,-0.06103515625,-0.3662109375,0.30517578125
1781664999.3786776,0.2501940734863281,0.008379705810546874,9.93952819213867,0.06103515625,-0.30517578125,0.06103515625
1781664999.3826776,0.24779987182617186,-0.008379705810546874,9.90840357055664,-0.06103515625,-0.48828125,-0.18310546875
1781664999.3866775,0.23582886352539062,0.009576806640625,9.9215716796875,0.18310546875,-0.54931640625,-0.06103515625
1781664999.3906775,0.24061726684570311,-0.005985504150390624,9.894038360595703,0.06103515625,-0.6103515625,0.0
1781664999.3946774,0.23582886352539062,-0.009576806640625,9.910797772216796,0.0,-0.244140625,-0.06103515625
1781664999.3986773,0.22744915771484372,0.02633621826171875,9.928754284667969,0.18310546875,-0.42724609375,-0.06103515625
1781664999.4026773,0.2501940734863281,0.016759411621093748,9.903615167236328,-0.18310546875,-0.244140625,0.0
1781664999.4066772,0.19991583862304688,0.0383072265625,9.91558617553711,-0.06103515625,-0.244140625,0.06103515625
1781664999.4106772,0.25139117431640623,0.011971008300781249,9.90122096557617,0.0,-0.30517578125,0.1220703125
1781664999.4146771,0.2501940734863281,0.028730419921875,9.91558617553711,0.244140625,0.0,0.3662109375
1781664999.418677,0.2549824768066406,0.017956512451171875,9.916783276367187,0.0,-0.48828125,-0.06103515625
1781664999.422677,0.20829554443359374,0.03591302490234375,9.938331091308592,-0.1220703125,0.0,-0.06103515625
1781664999.426677,0.1975216369628906,0.033518823242187495,9.928754284667969,-0.06103515625,-0.244140625,0.1220703125
1781664999.430677,0.19512743530273435,0.020350714111328123,9.961076007080077,0.0,-0.6103515625,0.1220703125
1781664999.434677,0.18315642700195311,0.011971008300781249,9.957484704589843,-0.244140625,-0.79345703125,0.1220703125
1781664999.4386768,0.16998831787109375,0.009576806640625,9.958681805419921,0.06103515625,-1.03759765625,-0.06103515625
1781664999.4426768,0.17118541870117188,0.037110125732421874,9.958681805419921,-0.244140625,-1.3427734375,-0.06103515625
1781664999.4466767,0.15322890625,0.055066638183593745,9.952696301269532,-0.3662109375,-1.46484375,-0.3662109375
1781664999.4506767,0.181959326171875,0.051475335693359374,9.949104998779296,-0.1220703125,-1.46484375,-0.06103515625
1781664999.4546766,0.17597382202148437,0.044292730712890624,9.94072529296875,-0.244140625,-1.8310546875,-0.30517578125
1781664999.4586766,0.19512743530273435,0.055066638183593745,9.922768780517577,-0.6103515625,-1.953125,-0.30517578125
1781664999.4626765,0.201112939453125,0.062249243164062495,9.92755718383789,-0.6103515625,-1.953125,-0.3662109375
1781664999.4666765,0.2262520568847656,0.07541735229492187,9.926360083007811,-0.67138671875,-1.64794921875,-0.244140625
1781664999.4706764,0.20470424194335937,0.08738836059570312,9.91438907470703,-0.6103515625,-1.64794921875,0.0
1781664999.4746764,0.21787235107421873,0.08259995727539061,9.935936889648437,-0.48828125,-1.5869140625,0.30517578125
1781664999.4786763,0.23702596435546874,0.023942016601562498,9.94072529296875,-0.6103515625,-1.40380859375,0.30517578125
1781664999.4826763,0.22266075439453123,0.040701428222656245,9.949104998779296,-0.54931640625,-1.5869140625,0.3662109375
1781664999.4866762,0.2262520568847656,0.016759411621093748,9.95987890625,-0.54931640625,-1.64794921875,0.48828125
1781664999.4906762,0.23702596435546874,0.034715924072265626,9.947907897949218,-0.30517578125,-1.708984375,0.732421875
1781664999.494676,0.2166752502441406,0.02633621826171875,9.938331091308592,-0.67138671875,-1.8310546875,0.6103515625
1781664999.498676,0.22266075439453123,0.011971008300781249,9.938331091308592,-0.6103515625,-1.953125,0.3662109375
1781664999.502676,0.2346317626953125,0.0,9.934739788818359,-0.6103515625,-2.197265625,0.244140625
1781664999.506676,0.26695348510742184,0.02633621826171875,9.93952819213867,-0.732421875,-2.01416015625,0.06103515625
1781664999.510676,0.2813186950683594,0.010773907470703125,9.900023864746093,-0.79345703125,-2.44140625,-0.06103515625
1781664999.5146759,0.29568390502929687,-0.03232172241210937,9.91558617553711,-0.67138671875,-2.0751953125,-0.30517578125
1781664999.5186758,0.36391865234375,-0.029927520751953124,9.90840357055664,-0.9765625,-2.13623046875,-0.1220703125
1781664999.5226758,0.3603273498535156,-0.05027823486328125,9.892841259765625,-0.79345703125,-1.953125,-0.18310546875
1781664999.5266757,0.42377369384765623,-0.05985504150390625,9.872490545654296,-0.6103515625,-2.13623046875,-0.3662109375
1781664999.5306756,0.3962403747558593,-0.105344873046875,9.854534033203125,-0.244140625,-1.40380859375,-0.3662109375
1781664999.5346756,0.4848258361816406,-0.08738836059570312,9.835380419921874,-0.1220703125,-1.220703125,0.06103515625
1781664999.5386755,0.46806642456054687,-0.10175357055664062,9.859322436523437,-0.06103515625,-0.54931640625,0.244140625
1781664999.5426755,0.4896142395019531,-0.105344873046875,9.853336932373047,0.0,-0.18310546875,0.30517578125
1781664999.5466754,0.5087678527832031,-0.10654197387695312,9.83178911743164,0.06103515625,0.6103515625,0.1220703125
1781664999.5506754,0.5231330627441406,-0.10654197387695312,9.813832604980469,0.54931640625,0.9765625,0.54931640625
1781664999.5546753,0.5339069702148437,-0.11851298217773437,9.822212310791015,0.54931640625,1.220703125,0.3662109375
1781664999.5586753,0.5291185668945312,-0.13646949462890623,9.822212310791015,0.91552734375,1.708984375,0.3662109375
1781664999.5626752,0.5315127685546874,-0.12449848632812499,9.861716638183593,0.67138671875,2.0751953125,0.18310546875
1781664999.5666752,0.5195417602539062,-0.12689268798828124,9.878476049804688,0.8544921875,2.50244140625,0.1220703125
1781664999.5706751,0.5003881469726562,-0.10773907470703124,9.85094273071289,1.220703125,2.62451171875,-0.1220703125
1781664999.574675,0.4740519287109375,-0.11731588134765625,9.87727894897461,1.3427734375,2.99072265625,0.0
1781664999.578675,0.4525041137695312,-0.09337386474609374,9.87727894897461,1.46484375,3.2958984375,-0.18310546875
1781664999.582675,0.4369418029785156,-0.08858546142578125,9.882067352294921,1.64794921875,3.2958984375,-0.244140625
1781664999.586675,0.373495458984375,-0.04908113403320312,9.900023864746093,1.8310546875,3.47900390625,-0.06103515625
1781664999.5906749,0.3363853332519531,-0.029927520751953124,9.90241806640625,1.953125,3.90625,-0.06103515625
1781664999.5946748,0.201112939453125,0.0718260498046875,9.938331091308592,2.13623046875,4.0283203125,0.1220703125
1781664999.5986748,-0.19871873779296872,0.25737667846679685,9.988609326171874,2.25830078125,5.0048828125,0.1220703125
1781664999.6026747,-0.4860229370117187,0.33518823242187495,9.773131176757811,2.0751953125,6.103515625,-0.06103515625
1781664999.6066747,-0.5135562561035156,0.49320554199218747,9.871293444824218,1.5869140625,5.79833984375,0.54931640625
1781664999.6106746,-0.2609679809570312,0.5829881042480468,10.188525164794921,0.6103515625,3.90625,1.5869140625
1781664999.6146746,-0.06584054565429687,0.40222587890625,10.314220751953124,-0.8544921875,0.9765625,2.9296875
1781664999.6186745,0.0047884033203125,0.17238251953125,10.356119281005858,-1.953125,-2.50244140625,3.2958984375
1781664999.6226745,-0.010773907470703125,-0.051475335693359374,10.328585961914062,-2.25830078125,-5.31005859375,2.9296875
1781664999.6266744,-0.16160861206054686,-0.28012159423828126,10.116699114990233,-1.220703125,-6.591796875,1.708984375
1781664999.6306744,-0.17956512451171874,-0.39264907226562495,9.86411083984375,-0.06103515625,-6.77490234375,-0.54931640625
1781664999.6346743,0.029927520751953124,-0.27892449340820313,9.976638317871092,0.732421875,-6.40869140625,-2.685546875
1781664999.6386743,0.2813186950683594,-0.12808978881835936,9.944316595458984,0.79345703125,-5.55419921875,-3.7841796875
1781664999.6426742,0.47285482788085936,0.09337386474609374,9.78031378173828,0.1220703125,-5.126953125,-4.21142578125
1781664999.6466742,0.6009446166992187,0.35793314819335936,9.783905084228515,-1.0986328125,-4.150390625,-3.2958984375
1781664999.650674,0.6751648681640625,0.46806642456054687,9.816226806640625,-2.197265625,-3.23486328125,-2.01416015625
1781664999.654674,0.6260837341308594,0.3651157531738281,9.715670336914062,-2.50244140625,-2.3193359375,-0.42724609375
1781664999.658674,0.47644613037109373,0.14484920043945312,9.652223992919922,-2.62451171875,-0.6103515625,0.732421875
1781664999.662674,0.35793314819335936,-0.10175357055664062,9.719261639404296,-1.708984375,0.91552734375,1.708984375
1781664999.666674,0.3280056274414062,-0.277727392578125,9.746794958496093,0.06103515625,2.62451171875,1.8310546875
1781664999.6706738,0.31962592163085934,-0.36152445068359373,9.782707983398437,1.28173828125,3.5400390625,1.64794921875
1781664999.6746738,0.3220201232910156,-0.3327940307617187,9.923965881347655,2.38037109375,4.0283203125,1.89208984375
1781664999.6786737,0.4225765930175781,-0.17836802368164062,10.032902056884765,2.685546875,3.11279296875,1.953125
1781664999.6826737,0.507570751953125,-0.04189852905273437,10.065223779296874,2.25830078125,2.197265625,2.5634765625
1781664999.6866736,0.49799394531249996,0.051475335693359374,10.013748443603514,1.15966796875,1.3427734375,2.5634765625
1781664999.6906736,0.4991910461425781,0.0718260498046875,9.923965881347655,0.79345703125,0.30517578125,1.8310546875
1781664999.6946735,0.40462008056640625,-0.06464344482421874,9.849745629882811,0.244140625,-0.30517578125,0.732421875
1781664999.6986735,0.24660277099609373,-0.10295067138671875,9.828197814941406,0.06103515625,0.244140625,-1.0986328125
1781664999.7026734,-0.029927520751953124,-0.034715924072265626,9.827000714111328,-0.244140625,1.5869140625,-2.5634765625
1781664999.7066734,-0.17118541870117188,0.06105214233398437,9.817423907470703,0.18310546875,2.685546875,-3.41796875
1781664999.7106733,-0.15442600708007811,0.23582886352539062,9.884461553955077,0.18310546875,2.685546875,-3.35693359375
1781664999.7146733,0.011971008300781249,0.3363853332519531,10.1131078125,-0.18310546875,1.5869140625,-2.0751953125
1781664999.7186732,0.17238251953125,0.29927520751953124,10.241197601318358,-0.8544921875,-0.42724609375,-0.1220703125
1781664999.7226732,0.16759411621093748,0.16041151123046873,10.141838232421874,-1.220703125,-2.685546875,1.5869140625
1781664999.7266731,0.1005564697265625,0.07422025146484375,10.046070166015625,-0.9765625,-3.7841796875,2.62451171875
1781664999.730673,-0.031124621582031248,-0.047884033203124995,9.970652813720703,-0.18310546875,-4.21142578125,2.86865234375
1781664999.734673,-0.017956512451171875,-0.1879448303222656,9.792284790039062,1.220703125,-3.662109375,2.13623046875
1781664999.738673,0.10893617553710937,-0.18315642700195311,9.80066449584961,1.64794921875,-2.685546875,0.732421875
1781664999.742673,0.32561142578124996,-0.05746083984375,9.922768780517577,1.40380859375,-1.40380859375,-0.6103515625
1781664999.7466729,0.48243163452148435,0.09696516723632811,9.916783276367187,0.732421875,-1.03759765625,-1.0986328125
1781664999.7506728,0.5913678100585937,0.2166752502441406,9.821015209960937,-0.42724609375,-0.67138671875,-1.40380859375
1781664999.7546728,0.6380547424316406,0.30406361083984373,9.853336932373047,-1.5869140625,-0.9765625,-0.91552734375
1781664999.7586727,0.5626373901367188,0.20231004028320312,9.896432562255859,-2.25830078125,-0.91552734375,-0.54931640625
1781664999.7626727,0.4381389038085937,-0.08738836059570312,9.832986218261718,-2.25830078125,-1.0986328125,-0.3662109375
1781664999.7666726,0.27892449340820313,-0.2693476867675781,9.823409411621093,-1.5869140625,-0.3662109375,-0.3662109375
1781664999.7706726,0.2442085693359375,-0.31004911499023435,9.891644158935547,-0.244140625,0.48828125,-0.54931640625
1781664999.7746725,0.24301146850585936,-0.33518823242187495,9.906009368896484,1.0986328125,1.03759765625,-0.67138671875
1781664999.7786725,0.25737667846679685,-0.23104046020507812,9.919177478027343,2.50244140625,1.15966796875,-0.48828125
1781664999.7826724,0.3064578125,-0.027533319091796873,9.970652813720703,2.44140625,1.46484375,0.30517578125
1781664999.7866724,0.3591302490234375,0.14006079711914063,10.025719451904296,1.8310546875,1.3427734375,1.03759765625
1781664999.7906723,0.30526071166992186,0.2861070983886719,9.900023864746093,1.3427734375,1.220703125,1.8310546875
1781664999.7946723,0.16879121704101563,0.3136404174804687,9.763554370117188,0.6103515625,1.5869140625,2.0751953125
1781664999.7986722,0.04189852905273437,0.29089550170898437,9.779116680908203,-0.1220703125,2.25830078125,1.64794921875
1781664999.8026721,-0.005985504150390624,0.18076222534179687,9.841365924072266,-0.42724609375,2.3193359375,1.220703125
1781664999.806672,0.015562310791015624,0.03950432739257812,9.943119494628906,-0.732421875,1.953125,0.67138671875
1781664999.810672,0.1352723937988281,-0.017956512451171875,10.098742602539062,-0.732421875,0.9765625,0.0
1781664999.814672,0.17836802368164062,-0.09217676391601562,10.217255584716796,-0.9765625,-0.79345703125,-0.1220703125
1781664999.818672,0.21188684692382811,-0.17238251953125,10.190919366455077,-0.79345703125,-2.44140625,-0.42724609375
1781664999.822672,0.14125789794921875,-0.23702596435546874,10.096348400878906,-0.244140625,-3.5400390625,-1.03759765625
1781664999.8266718,0.12449848632812499,-0.15322890625,9.987412225341796,0.1220703125,-4.21142578125,-1.28173828125
1781664999.8306718,0.12689268798828124,-0.06584054565429687,9.854534033203125,0.67138671875,-4.0283203125,-1.708984375
1781664999.8346717,0.19632453613281248,0.0718260498046875,9.77432827758789,0.9765625,-3.5400390625,-1.52587890625
1781664999.8386717,0.29089550170898437,0.20949264526367187,9.775525378417969,0.6103515625,-2.62451171875,-1.28173828125
1781664999.8426716,0.3962403747558593,0.2885013000488281,9.821015209960937,-0.30517578125,-1.77001953125,-0.48828125
1781664999.8466716,0.4836287353515625,0.3064578125,9.832986218261718,-0.79345703125,-1.0986328125,0.18310546875
1781664999.8506715,0.4513070129394531,0.239420166015625,9.85094273071289,-1.28173828125,-0.244140625,0.79345703125
1781664999.8546715,0.39145197143554683,0.10175357055664062,9.841365924072266,-1.52587890625,1.0986328125,1.0986328125
1781664999.8586714,0.3459621398925781,-0.076614453125,9.805452899169921,-0.9765625,1.52587890625,1.40380859375
1781664999.8626714,0.29568390502929687,-0.19871873779296872,9.835380419921874,0.18310546875,1.953125,1.0986328125
1781664999.8666713,0.2885013000488281,-0.23822306518554687,9.894038360595703,0.6103515625,2.3193359375,0.732421875
1781664999.8706713,0.3136404174804687,-0.20231004028320312,9.976638317871092,1.28173828125,1.77001953125,0.732421875
1781664999.8746712,0.3603273498535156,-0.08978256225585937,10.043675964355469,1.3427734375,0.6103515625,0.6103515625
1781664999.8786712,0.36631285400390623,-0.03232172241210937,10.075997686767577,1.0986328125,-0.42724609375,0.54931640625
1781664999.882671,0.36152445068359373,0.003591302490234375,10.043675964355469,0.48828125,-0.79345703125,0.30517578125
1781664999.886671,0.3016694091796875,0.003591302490234375,9.970652813720703,0.06103515625,-1.28173828125,0.06103515625
1781664999.890671,0.21188684692382811,0.020350714111328123,9.90241806640625,-0.06103515625,-0.732421875,-0.3662109375
1781664999.894671,0.09337386474609374,0.062249243164062495,9.832986218261718,-0.06103515625,0.06103515625,-1.0986328125
1781664999.898671,0.0430956298828125,0.07302315063476562,9.78031378173828,0.06103515625,0.9765625,-1.3427734375
1781664999.9026709,0.07781155395507812,0.12689268798828124,9.8449572265625,0.0,1.220703125,-1.40380859375
1781664999.9066708,0.1879448303222656,0.15562310791015624,9.994594830322265,-0.30517578125,0.8544921875,-0.6103515625
1781664999.9106708,0.2693476867675781,0.14724340209960937,10.06163247680664,-0.79345703125,0.1220703125,0.42724609375
1781664999.9146707,0.2549824768066406,0.06464344482421874,10.065223779296874,-0.67138671875,-1.15966796875,1.15966796875
1781664999.9186707,0.19991583862304688,-0.051475335693359374,10.053252770996092,-0.6103515625,-1.708984375,1.708984375
1781664999.9226706,0.1304839904785156,-0.13646949462890623,9.95987890625,-0.1220703125,-1.77001953125,1.52587890625
1781664999.9266706,0.12569558715820311,-0.1867477294921875,9.85094273071289,0.6103515625,-1.5869140625,0.54931640625
1781664999.9306705,0.16759411621093748,-0.12090718383789062,9.841365924072266,0.91552734375,-1.15966796875,-0.30517578125
1781664999.9346704,0.2657563842773437,-0.003591302490234375,9.885658654785155,1.15966796875,-0.6103515625,-0.9765625
1781664999.9386704,0.3591302490234375,0.12569558715820311,9.87009634399414,0.6103515625,-0.48828125,-0.9765625
1781664999.9426703,0.430956298828125,0.20949264526367187,9.879673150634765,-0.48828125,-0.8544921875,-0.732421875
1781664999.9466703,0.4273649963378906,0.24061726684570311,9.93952819213867,-1.220703125,-0.8544921875,-0.244140625
1781664999.9506702,0.38187516479492184,0.14245499877929688,9.937133990478515,-1.52587890625,-0.9765625,-0.1220703125
1781664999.9546702,0.296881005859375,0.011971008300781249,9.900023864746093,-1.3427734375,-0.9765625,-0.06103515625
1781664999.9586701,0.229843359375,-0.1292868896484375,9.8449572265625,-0.6103515625,-0.54931640625,0.0
1781664999.96267,0.19033903198242186,-0.1867477294921875,9.85692823486328,0.06103515625,0.42724609375,-0.48828125
1781664999.96667,0.2154781494140625,-0.14484920043945312,9.888052856445311,0.8544921875,0.54931640625,-0.54931640625
1781664999.97067,0.277727392578125,-0.10295067138671875,9.90840357055664,1.28173828125,0.54931640625,0.0
1781664999.97467,0.34715924072265625,0.027533319091796873,9.956287603759765,1.40380859375,0.48828125,0.54931640625
1781664999.97867,0.37229835815429685,0.08738836059570312,10.008960040283203,0.732421875,0.0,0.67138671875
1781664999.9826698,0.3794809631347656,0.11611878051757812,9.961076007080077,0.244140625,-0.244140625,1.220703125
1781664999.9866698,0.30526071166992186,0.09217676391601562,9.886855755615233,-0.1220703125,-0.06103515625,1.15966796875
1781664999.9906697,0.17477672119140625,0.005985504150390624,9.874884747314452,-0.30517578125,0.3662109375,0.79345703125
1781664999.9946697,0.1197100830078125,-0.047884033203124995,9.83178911743164,0.0,1.220703125,-0.06103515625
1781664999.9986696,0.11013327636718749,-0.03232172241210937,9.832986218261718,0.3662109375,1.46484375,-0.54931640625
1781665000.0026696,0.16759411621093748,-0.008379705810546874,9.93354268798828,0.244140625,1.40380859375,-0.54931640625
1781665000.0066695,0.239420166015625,0.020350714111328123,10.032902056884765,0.1220703125,0.30517578125,-0.244140625
1781665000.0106695,0.29089550170898437,0.020350714111328123,10.081983190917969,-0.30517578125,-0.732421875,0.18310546875
1781665000.0146694,0.2765302917480469,0.0047884033203125,10.084377392578125,-0.6103515625,-1.64794921875,0.0
1781665000.0186694,0.16759411621093748,0.003591302490234375,10.020931048583984,-0.18310546875,-2.01416015625,0.06103515625
1781665000.0226693,0.09457096557617187,-0.0383072265625,9.906009368896484,0.244140625,-1.8310546875,0.1220703125
1781665000.0266693,0.07541735229492187,-0.037110125732421874,9.83897172241211,0.6103515625,-1.15966796875,-0.3662109375
1781665000.0306692,0.1580173095703125,0.010773907470703125,9.86291373901367,0.79345703125,-0.8544921875,-0.30517578125
1781665000.0346692,0.30406361083984373,0.086191259765625,9.897629663085937,0.30517578125,-0.67138671875,-0.244140625
1781665000.038669,0.42497079467773435,0.12689268798828124,9.937133990478515,-0.30517578125,-0.91552734375,0.1220703125
1781665000.042669,0.41539398803710936,0.1484405029296875,9.938331091308592,-0.30517578125,-0.8544921875,0.48828125
1781665000.046669,0.3938461730957031,0.09217676391601562,9.926360083007811,-0.9765625,-0.79345703125,0.42724609375
1781665000.050669,0.3184288208007812,-0.009576806640625,9.90122096557617,-0.732421875,-0.48828125,0.30517578125
1781665000.054669,0.28012159423828126,-0.051475335693359374,9.848548529052733,-0.18310546875,0.30517578125,-0.06103515625
1781665000.0586689,0.23104046020507812,-0.08499415893554688,9.849745629882811,-0.18310546875,0.54931640625,-0.30517578125
1781665000.0626688,0.23582886352539062,-0.086191259765625,9.86411083984375,0.54931640625,0.91552734375,-0.6103515625
1781665000.0666687,0.2597708801269531,-0.009576806640625,9.913191973876952,0.42724609375,0.732421875,-0.30517578125
1781665000.0706687,0.29568390502929687,0.04908113403320312,9.968258612060547,0.54931640625,0.54931640625,0.0
1781665000.0746686,0.29089550170898437,0.105344873046875,10.008960040283203,0.1220703125,0.18310546875,0.30517578125
1781665000.0786686,0.2454056701660156,0.11252747802734374,9.975441217041014,-0.06103515625,-0.42724609375,0.8544921875
1781665000.0826685,0.14963760375976562,0.06703764648437499,9.932345587158203,0.1220703125,-0.18310546875,0.67138671875
1781665000.0866685,0.06823474731445311,0.037110125732421874,9.900023864746093,0.1220703125,-0.06103515625,0.48828125
1781665000.0906684,0.08140285644531249,-0.013168109130859374,9.894038360595703,-0.1220703125,0.06103515625,0.244140625
1781665000.0946684,0.181959326171875,-0.0143652099609375,9.926360083007811,-0.06103515625,0.0,-0.1220703125
1781665000.0986683,0.24899697265624998,-0.011971008300781249,9.961076007080077,-0.30517578125,-0.42724609375,-0.244140625
1781665000.1026683,0.27174188842773433,0.016759411621093748,9.9981861328125,-0.3662109375,-1.03759765625,-0.30517578125
1781665000.1066682,0.2825157958984375,-0.0143652099609375,9.980229620361328,-0.54931640625,-1.64794921875,-0.30517578125
1781665000.1106682,0.22505495605468748,-0.033518823242187495,9.973047015380859,-0.42724609375,-2.0751953125,-0.54931640625
1781665000.1146681,0.2262520568847656,-0.05027823486328125,9.941922393798828,-0.6103515625,-1.8310546875,-0.6103515625
1781665000.118668,0.17597382202148437,-0.05626373901367187,9.87608184814453,-0.244140625,-1.8310546875,-0.6103515625
1781665000.122668,0.2166752502441406,0.0,9.865307940673828,-0.06103515625,-1.28173828125,-0.67138671875
1781665000.126668,0.2454056701660156,0.0909796630859375,9.879673150634765,-0.18310546875,-0.91552734375,-0.54931640625
1781665000.130668,0.27892449340820313,0.12090718383789062,9.890447058105469,-0.42724609375,-0.79345703125,-0.18310546875
1781665000.1346679,0.3064578125,0.15083470458984374,9.922768780517577,-0.6103515625,-0.9765625,0.42724609375
1781665000.1386678,0.2813186950683594,0.14963760375976562,9.922768780517577,-0.732421875,-0.67138671875,0.8544921875
1781665000.1426678,0.23104046020507812,0.07422025146484375,9.909600671386718,-0.732421875,-0.54931640625,0.732421875
1781665000.1466677,0.20949264526367187,0.008379705810546874,9.89523546142578,-0.54931640625,-0.79345703125,0.6103515625
1781665000.1506677,0.2059013427734375,-0.034715924072265626,9.903615167236328,-0.244140625,-0.30517578125,0.42724609375
1781665000.1546676,0.19393033447265623,-0.05626373901367187,9.934739788818359,0.0,-0.30517578125,0.3662109375
1781665000.1586676,0.23343466186523437,-0.06464344482421874,9.929951385498047,0.244140625,-0.3662109375,0.0
1781665000.1626675,0.29448680419921874,-0.06584054565429687,9.943119494628906,0.42724609375,-0.8544921875,0.06103515625
1781665000.1666675,0.31483751831054685,-0.04668693237304687,9.958681805419921,0.42724609375,-1.03759765625,-0.06103515625
1781665000.1706674,0.3711012573242187,-0.03591302490234375,9.931148486328125,0.6103515625,-1.220703125,-0.18310546875
1781665000.1746674,0.37708676147460934,-0.020350714111328123,9.9215716796875,0.3662109375,-0.9765625,0.1220703125
1781665000.1786673,0.3854664672851562,-0.044292730712890624,9.871293444824218,0.30517578125,-0.91552734375,0.1220703125
1781665000.1826673,0.4010287780761719,-0.055066638183593745,9.87608184814453,0.67138671875,-0.48828125,-0.06103515625
1781665000.1866672,0.35194764404296874,-0.06105214233398437,9.846154327392577,0.6103515625,0.3662109375,-0.18310546875
1781665000.1906672,0.38187516479492184,-0.06943184814453125,9.827000714111328,0.732421875,1.0986328125,0.0
1781665000.194667,0.3794809631347656,-0.06464344482421874,9.85692823486328,0.3662109375,1.52587890625,-0.06103515625
1781665000.198667,0.3890577697753906,-0.034715924072265626,9.897629663085937,0.48828125,1.89208984375,0.18310546875
1781665000.202667,0.37229835815429685,0.027533319091796873,9.89523546142578,0.42724609375,1.8310546875,0.18310546875
1781665000.206667,0.3363853332519531,0.00239420166015625,9.886855755615233,0.54931640625,2.01416015625,0.67138671875
1781665000.210667,0.2645592834472656,0.0047884033203125,9.945513696289062,0.6103515625,1.708984375,0.6103515625
1781665000.2146668,0.11252747802734374,0.00718260498046875,9.958681805419921,0.54931640625,1.89208984375,0.54931640625
1781665000.2186668,-0.0143652099609375,0.005985504150390624,9.89523546142578,0.67138671875,1.89208984375,0.18310546875
1781665000.2226667,-0.016759411621093748,0.09816226806640624,9.923965881347655,0.732421875,1.77001953125,0.06103515625
1781665000.2266667,0.01915361328125,0.181959326171875,10.001777435302733,0.8544921875,0.6103515625,0.1220703125
1781665000.2306666,0.11252747802734374,0.20231004028320312,10.035296258544921,0.1220703125,0.0,0.30517578125
1781665000.2346666,0.16041151123046873,0.17118541870117188,10.10712230834961,-0.3662109375,-1.64794921875,0.67138671875
1781665000.2386665,0.14604630126953125,0.1304839904785156,10.078391888427733,-0.91552734375,-2.13623046875,0.6103515625
1781665000.2426665,0.11252747802734374,0.06703764648437499,9.99220062866211,-0.79345703125,-2.8076171875,0.244140625
1781665000.2466664,0.11013327636718749,0.003591302490234375,9.911994873046874,-0.3662109375,-2.9296875,-0.6103515625
1781665000.2506664,0.1484405029296875,-0.027533319091796873,9.883264453125,-0.42724609375,-2.74658203125,-1.220703125
1781665000.2546663,0.2537853759765625,-0.022744915771484374,9.909600671386718,-0.30517578125,-2.50244140625,-1.77001953125
1781665000.2586663,0.373495458984375,0.009576806640625,9.904812268066406,-0.42724609375,-2.197265625,-1.77001953125
1781665000.2626662,0.4429273071289062,0.10414777221679687,9.900023864746093,-0.6103515625,-2.25830078125,-1.28173828125
1781665000.2666662,0.4525041137695312,0.09457096557617187,9.874884747314452,-0.48828125,-1.64794921875,-0.54931640625
1781665000.2706661,0.43933600463867184,0.07541735229492187,9.859322436523437,-0.48828125,-1.15966796875,-0.06103515625
1781665000.274666,0.37828386230468747,-0.03232172241210937,9.819818109130859,-0.48828125,-0.48828125,0.6103515625
1781665000.278666,0.316034619140625,-0.10295067138671875,9.798270294189452,0.06103515625,0.79345703125,0.67138671875
1781665000.282666,0.2920926025390625,-0.09576806640624999,9.795876092529296,0.42724609375,1.708984375,0.8544921875
1781665000.286666,0.27174188842773433,-0.08259995727539061,9.835380419921874,0.91552734375,2.13623046875,0.9765625
1781665000.2906659,0.31962592163085934,-0.06464344482421874,9.879673150634765,1.03759765625,2.44140625,0.9765625
1781665000.2946658,0.3172317199707031,-0.07302315063476562,9.97184991455078,0.9765625,2.13623046875,0.91552734375
1781665000.2986658,0.3220201232910156,-0.058657940673828124,10.049661468505859,0.42724609375,1.708984375,1.15966796875
1781665000.3026657,0.26815058593749996,-0.029927520751953124,10.029310754394531,0.18310546875,0.79345703125,1.3427734375
1781665000.3066657,0.16160861206054686,-0.047884033203124995,9.987412225341796,0.244140625,0.48828125,0.9765625
1781665000.3106656,0.037110125732421874,-0.02633621826171875,9.907206469726562,0.42724609375,0.48828125,0.30517578125
1781665000.3146656,-0.0143652099609375,-0.05626373901367187,9.906009368896484,0.67138671875,0.244140625,-0.48828125
1781665000.3186655,0.02633621826171875,-0.0383072265625,9.96586441040039,0.48828125,-0.06103515625,-0.732421875
1781665000.3226655,0.16639701538085935,0.08738836059570312,10.034099157714843,0.30517578125,-0.67138671875,-0.54931640625
1781665000.3266654,0.25737667846679685,0.14963760375976562,10.01015714111328,-0.1220703125,-1.220703125,-0.18310546875
1781665000.3306653,0.27892449340820313,0.14245499877929688,9.9981861328125,-0.1220703125,-2.0751953125,0.18310546875
1781665000.3346653,0.239420166015625,0.0718260498046875,9.956287603759765,-0.3662109375,-2.25830078125,0.48828125
1781665000.3386652,0.19393033447265623,0.020350714111328123,9.90840357055664,-0.244140625,-2.3193359375,0.54931640625
1781665000.3426652,0.2166752502441406,-0.034715924072265626,9.834183319091796,-0.1220703125,-1.52587890625,0.244140625
1781665000.3466651,0.27293898925781246,0.008379705810546874,9.797073193359374,0.48828125,-1.03759765625,0.06103515625
1781665000.350665,0.3758896606445312,0.031124621582031248,9.85094273071289,0.54931640625,-0.244140625,-0.3662109375
1781665000.354665,0.4656722229003906,0.07302315063476562,9.87608184814453,0.42724609375,0.06103515625,0.1220703125
1781665000.358665,0.49679684448242184,0.06464344482421874,9.894038360595703,-0.1220703125,0.06103515625,-0.06103515625
1781665000.362665,0.4129997863769531,0.08978256225585937,9.89523546142578,0.0,0.48828125,0.244140625
1781665000.366665,0.3435679382324219,0.09816226806640624,9.86291373901367,-0.1220703125,0.732421875,0.18310546875
1781665000.3706648,0.23104046020507812,0.058657940673828124,9.849745629882811,0.1220703125,1.28173828125,0.1220703125
1781665000.3746648,0.19393033447265623,0.017956512451171875,9.871293444824218,0.3662109375,1.5869140625,0.30517578125
1781665000.3786647,0.2059013427734375,0.009576806640625,9.926360083007811,0.1220703125,1.708984375,0.1220703125
1781665000.3826647,0.23822306518554687,-0.008379705810546874,9.98501802368164,0.3662109375,1.15966796875,0.3662109375
1781665000.3866646,0.23582886352539062,0.025139117431640625,10.020931048583984,0.30517578125,0.48828125,0.8544921875
1781665000.3906646,0.21068974609375,-0.0047884033203125,10.002974536132811,0.1220703125,-0.30517578125,0.91552734375
1781665000.3946645,0.143652099609375,-0.031124621582031248,9.98501802368164,0.30517578125,-0.79345703125,0.8544921875
1781665000.3986645,0.086191259765625,-0.06584054565429687,9.952696301269532,0.244140625,-1.03759765625,0.54931640625
1781665000.4026644,0.10773907470703124,-0.04548983154296875,9.944316595458984,0.18310546875,-0.91552734375,0.0
1781665000.4066644,0.17956512451171874,-0.031124621582031248,9.922768780517577,0.244140625,-0.9765625,-0.18310546875
1781665000.4106643,0.23702596435546874,0.00718260498046875,9.907206469726562,-0.06103515625,-0.91552734375,-0.732421875
1781665000.4146643,0.26695348510742184,-0.003591302490234375,9.937133990478515,-0.18310546875,-1.28173828125,-0.54931640625
1781665000.4186642,0.2537853759765625,0.013168109130859374,9.962273107910155,-0.48828125,-1.220703125,-0.18310546875
1781665000.4226642,0.2609679809570312,0.013168109130859374,9.929951385498047,-0.54931640625,-1.3427734375,-0.42724609375
1781665000.426664,0.22744915771484372,-0.015562310791015624,9.879673150634765,-0.244140625,-1.15966796875,-0.18310546875
1781665000.430664,0.19632453613281248,0.025139117431640625,9.866505041503906,0.1220703125,-0.3662109375,-0.1220703125
1781665000.434664,0.20709844360351562,0.013168109130859374,9.860519537353515,0.244140625,-0.06103515625,0.0
1781665000.438664,0.2454056701660156,0.03232172241210937,9.896432562255859,0.48828125,0.1220703125,0.3662109375
1781665000.442664,0.27293898925781246,0.04189852905273437,9.9215716796875,0.48828125,0.30517578125,0.42724609375
1781665000.4466639,0.28969840087890625,0.11133037719726561,9.92755718383789,0.42724609375,0.0,0.8544921875
1781665000.4506638,0.2765302917480469,0.07422025146484375,9.90122096557617,0.48828125,0.18310546875,0.6103515625
1781665000.4546638,0.25258827514648435,0.1005564697265625,9.889249957275391,0.42724609375,0.1220703125,0.67138671875
1781665000.4586637,0.19632453613281248,0.086191259765625,9.885658654785155,0.06103515625,0.54931640625,0.48828125
1781665000.4626637,0.17357962036132812,0.07900865478515624,9.907206469726562,-0.1220703125,0.3662109375,0.0
1781665000.4666636,0.19393033447265623,0.0526724365234375,9.951499200439452,-0.06103515625,-0.06103515625,-0.42724609375
1781665000.4706635,0.21068974609375,0.06464344482421874,9.991003527832031,-0.30517578125,-0.1220703125,-0.48828125
1781665000.4746635,0.23702596435546874,0.033518823242187495,10.02332525024414,-0.3662109375,-0.79345703125,-0.42724609375
1781665000.4786634,0.23343466186523437,0.027533319091796873,10.016142645263672,-0.6103515625,-1.3427734375,-0.42724609375
1781665000.4826634,0.19393033447265623,-0.022744915771484374,9.967061511230469,-0.244140625,-1.5869140625,-0.1220703125
1781665000.4866633,0.17477672119140625,-0.01915361328125,9.91558617553711,-0.3662109375,-1.8310546875,-0.244140625
1781665000.4906633,0.20350714111328125,-0.016759411621093748,9.878476049804688,-0.06103515625,-1.3427734375,-0.30517578125
1781665000.4946632,0.24899697265624998,-0.033518823242187495,9.897629663085937,-0.1220703125,-1.3427734375,-0.30517578125
1781665000.4986632,0.32920272827148434,-0.020350714111328123,9.913191973876952,0.18310546875,-1.0986328125,-0.18310546875
1781665000.5026631,0.3699041564941406,0.00239420166015625,9.935936889648437,-0.30517578125,-1.0986328125,0.0
1781665000.506663,0.3902548706054687,-0.04189852905273437,9.91558617553711,-0.30517578125,-0.91552734375,0.30517578125
1781665000.510663,0.3890577697753906,-0.07062894897460938,9.906009368896484,-0.244140625,-0.54931640625,0.30517578125
1781665000.514663,0.3794809631347656,-0.08259995727539061,9.871293444824218,-0.18310546875,-0.1220703125,0.0
1781665000.518663,0.3363853332519531,-0.11851298217773437,9.85692823486328,0.0,0.1220703125,0.06103515625
1781665000.5226629,0.29568390502929687,-0.09696516723632811,9.878476049804688,0.30517578125,0.732421875,-0.1220703125
1781665000.5266628,0.3124433166503906,-0.055066638183593745,9.888052856445311,0.30517578125,0.67138671875,-0.30517578125
1781665000.5306628,0.31962592163085934,-0.01915361328125,9.91558617553711,0.3662109375,0.67138671875,-0.18310546875
1781665000.5346627,0.277727392578125,0.04548983154296875,9.958681805419921,0.48828125,0.6103515625,0.1220703125
1781665000.5386627,0.2442085693359375,0.08020575561523437,9.973047015380859,0.42724609375,0.244140625,0.3662109375
1781665000.5426626,0.16998831787109375,0.10175357055664062,9.94671079711914,0.1220703125,0.3662109375,0.48828125
1781665000.5466626,0.17357962036132812,0.11851298217773437,9.923965881347655,0.06103515625,0.18310546875,0.6103515625
1781665000.5506625,0.14125789794921875,0.09576806640624999,9.949104998779296,0.18310546875,0.1220703125,0.48828125
1781665000.5546625,0.14604630126953125,0.08140285644531249,9.952696301269532,-0.06103515625,-0.30517578125,0.3662109375
1781665000.5586624,0.18555062866210936,0.047884033203124995,9.941922393798828,-0.1220703125,-0.732421875,0.0
1781665000.5626624,0.1975216369628906,0.0718260498046875,9.945513696289062,0.06103515625,-0.91552734375,0.06103515625
1781665000.5666623,0.21787235107421873,0.05386953735351562,9.944316595458984,0.06103515625,-1.3427734375,0.06103515625
1781665000.5706623,0.1867477294921875,0.029927520751953124,9.938331091308592,-0.30517578125,-1.3427734375,-0.3662109375
1781665000.5746622,0.22744915771484372,0.031124621582031248,9.980229620361328,-0.3662109375,-1.5869140625,-0.54931640625
1781665000.5786622,0.2645592834472656,0.016759411621093748,9.947907897949218,-0.54931640625,-1.64794921875,-0.6103515625
1781665000.582662,0.277727392578125,-0.001197100830078125,9.897629663085937,-0.42724609375,-1.28173828125,-0.3662109375
1781665000.586662,0.2825157958984375,-0.008379705810546874,9.87009634399414,-0.18310546875,-1.220703125,-0.54931640625
1781665000.590662,0.2932897033691406,0.001197100830078125,9.855731134033203,0.06103515625,-0.8544921875,-0.3662109375
1781665000.594662,0.2765302917480469,-0.03591302490234375,9.867702142333984,0.0,-0.54931640625,-0.1220703125
1781665000.598662,0.2920926025390625,0.00718260498046875,9.861716638183593,0.1220703125,0.1220703125,0.06103515625
1781665000.6026618,0.3016694091796875,0.02154781494140625,9.888052856445311,0.1220703125,0.3662109375,0.244140625
1781665000.6066618,0.2885013000488281,-0.025139117431640625,9.919177478027343,0.244140625,0.54931640625,0.30517578125
1781665000.6106617,0.25737667846679685,-0.031124621582031248,9.929951385498047,0.1220703125,0.79345703125,0.6103515625
1781665000.6146617,0.25139117431640623,-0.037110125732421874,9.937133990478515,0.30517578125,0.9765625,0.79345703125
1781665000.6186616,0.2932897033691406,-0.05626373901367187,9.931148486328125,0.244140625,0.91552734375,0.54931640625
1781665000.6226616,0.26695348510742184,-0.05746083984375,9.926360083007811,0.18310546875,0.42724609375,0.67138671875
1781665000.6266615,0.23343466186523437,-0.05027823486328125,9.949104998779296,0.06103515625,0.06103515625,0.6103515625
1781665000.6306615,0.22744915771484372,-0.029927520751953124,9.94072529296875,0.3662109375,-0.18310546875,0.30517578125
1781665000.6346614,0.21428104858398436,-0.001197100830078125,9.941922393798828,0.54931640625,-0.6103515625,0.244140625
1781665000.6386614,0.19393033447265623,0.020350714111328123,9.92755718383789,0.48828125,-0.67138671875,-0.30517578125
1781665000.6426613,0.21906945190429686,0.076614453125,9.929951385498047,0.1220703125,-0.732421875,-0.1220703125
1781665000.6466613,0.24899697265624998,0.11252747802734374,9.928754284667969,-0.18310546875,-0.54931640625,-0.1220703125
1781665000.6506612,0.23582886352539062,0.09935936889648436,9.92755718383789,-0.06103515625,-1.03759765625,-0.18310546875
1781665000.6546612,0.2705447875976562,0.11133037719726561,9.95389340209961,-0.3662109375,-1.0986328125,-0.30517578125
1781665000.6586611,0.3016694091796875,0.07422025146484375,9.950302099609374,-0.18310546875,-1.15966796875,-0.06103515625
1781665000.662661,0.2705447875976562,0.05027823486328125,9.929951385498047,-0.30517578125,-1.03759765625,0.1220703125
1781665000.666661,0.2825157958984375,0.04548983154296875,9.896432562255859,-0.30517578125,-0.732421875,-0.244140625
1781665000.670661,0.2597708801269531,-0.009576806640625,9.87727894897461,0.18310546875,-0.79345703125,0.30517578125
1781665000.674661,0.28969840087890625,0.011971008300781249,9.868899243164062,0.18310546875,-0.48828125,0.06103515625
1781665000.6786609,0.29927520751953124,0.0143652099609375,9.86411083984375,0.0,-0.18310546875,-0.06103515625
1781665000.6826608,0.31483751831054685,0.033518823242187495,9.871293444824218,0.30517578125,0.18310546875,-0.1220703125
1781665000.6866608,0.2861070983886719,0.07062894897460938,9.87009634399414,0.18310546875,0.30517578125,-0.06103515625
1781665000.6906607,0.25258827514648435,0.0718260498046875,9.903615167236328,-0.06103515625,0.3662109375,0.0
1781665000.6946607,0.21906945190429686,0.034715924072265626,9.937133990478515,-0.30517578125,0.30517578125,0.1220703125
1781665000.6986606,0.20829554443359374,0.011971008300781249,9.958681805419921,-0.3662109375,0.54931640625,0.0
1781665000.7026606,0.17597382202148437,-0.00239420166015625,9.945513696289062,-0.30517578125,0.06103515625,0.244140625
1781665000.7066605,0.1592144104003906,-0.031124621582031248,9.968258612060547,-0.1220703125,-0.3662109375,0.244140625
1781665000.7106605,0.14484920043945312,-0.09816226806640624,9.970652813720703,0.0,-0.67138671875,0.06103515625
1781665000.7146604,0.17118541870117188,-0.09696516723632811,9.952696301269532,0.18310546875,-0.9765625,0.0
1781665000.7186604,0.19512743530273435,-0.037110125732421874,9.92755718383789,0.54931640625,-0.9765625,-0.06103515625
1781665000.7226603,0.21906945190429686,-0.034715924072265626,9.931148486328125,0.30517578125,-1.28173828125,0.0
1781665000.7266603,0.20231004028320312,0.015562310791015624,9.9215716796875,0.06103515625,-1.28173828125,0.06103515625
1781665000.7306602,0.2262520568847656,0.03232172241210937,9.898826763916015,0.18310546875,-1.03759765625,0.0
1781665000.7346601,0.22385785522460935,0.05746083984375,9.898826763916015,0.06103515625,-0.8544921875,-0.1220703125
1781665000.73866,0.2825157958984375,0.047884033203124995,9.892841259765625,-0.3662109375,-0.54931640625,-0.244140625
1781665000.74266,0.2980781066894531,0.06344634399414062,9.907206469726562,-0.3662109375,-0.54931640625,-0.06103515625
1781665000.74666,0.3387795349121094,0.015562310791015624,9.916783276367187,-0.18310546875,-0.3662109375,0.0
1781665000.75066,0.34835634155273437,-0.003591302490234375,9.920374578857421,-0.18310546875,-0.30517578125,0.3662109375
1781665000.75466,0.34117373657226563,-0.008379705810546874,9.911994873046874,0.1220703125,-0.18310546875,0.42724609375
1781665000.7586598,0.33758243408203126,-0.040701428222656245,9.90840357055664,0.30517578125,0.0,0.42724609375
1781665000.7626598,0.316034619140625,-0.040701428222656245,9.890447058105469,0.8544921875,0.06103515625,0.18310546875
1781665000.7666597,0.2980781066894531,-0.027533319091796873,9.860519537353515,0.8544921875,0.244140625,0.0
1781665000.7706597,0.2765302917480469,0.0383072265625,9.867702142333984,0.67138671875,0.6103515625,0.06103515625
1781665000.7746596,0.258573779296875,0.09696516723632811,9.888052856445311,0.48828125,0.91552734375,-0.18310546875
1781665000.7786596,0.2705447875976562,0.19153613281249998,9.916783276367187,0.3662109375,0.9765625,-0.1220703125
1781665000.7826595,0.23822306518554687,0.17956512451171874,9.94072529296875,0.0,0.732421875,0.244140625
1781665000.7866595,0.22744915771484372,0.14963760375976562,9.973047015380859,-0.54931640625,0.244140625,0.1220703125
1781665000.7906594,0.2262520568847656,0.09816226806640624,9.9981861328125,-0.8544921875,-0.06103515625,0.1220703125
1781665000.7946594,0.19632453613281248,0.00239420166015625,9.97184991455078,-0.67138671875,-0.6103515625,0.1220703125
1781665000.7986593,0.15203180541992187,-0.07900865478515624,9.96586441040039,-0.30517578125,-1.0986328125,0.1220703125
1781665000.8026593,0.20470424194335937,-0.12090718383789062,9.988609326171874,-0.1220703125,-1.03759765625,0.0
1781665000.8066592,0.25737667846679685,-0.11372457885742186,9.95389340209961,0.42724609375,-1.52587890625,-0.06103515625
1781665000.8106592,0.29089550170898437,-0.07422025146484375,9.896432562255859,0.48828125,-1.64794921875,-0.18310546875
1781665000.814659,0.2980781066894531,-0.0430956298828125,9.860519537353515,0.54931640625,-1.40380859375,-0.42724609375
1781665000.818659,0.3184288208007812,-0.0047884033203125,9.87608184814453,0.244140625,-0.91552734375,-0.48828125
1781665000.822659,0.2980781066894531,0.06703764648437499,9.836577520751952,-0.1220703125,-0.42724609375,-0.30517578125
1781665000.826659,0.3112462158203125,0.09935936889648436,9.80665,-0.06103515625,0.0,-0.06103515625
1781665000.830659,0.3064578125,0.08738836059570312,9.841365924072266,-0.18310546875,0.42724609375,0.244140625
1781665000.8346589,0.2932897033691406,0.03591302490234375,9.926360083007811,-0.244140625,0.67138671875,0.42724609375
1781665000.8386588,0.2741360900878906,-0.055066638183593745,9.955090502929687,-0.18310546875,1.15966796875,0.67138671875
1781665000.8426588,0.22385785522460935,-0.06105214233398437,9.95389340209961,-0.3662109375,0.6103515625,0.6103515625
1781665000.8466587,0.21308394775390624,-0.06943184814453125,9.957484704589843,0.18310546875,0.42724609375,0.9765625
1781665000.8506587,0.2454056701660156,-0.086191259765625,9.949104998779296,0.732421875,0.18310546875,0.79345703125
1781665000.8546586,0.21308394775390624,-0.09457096557617187,9.95389340209961,0.79345703125,-0.1220703125,0.67138671875
1781665000.8586586,0.229843359375,-0.08140285644531249,9.929951385498047,1.0986328125,-0.18310546875,0.6103515625
1781665000.8626585,0.22266075439453123,0.02633621826171875,9.910797772216796,1.03759765625,-0.42724609375,0.48828125
1781665000.8666584,0.2214636535644531,0.1352723937988281,9.906009368896484,0.732421875,-0.1220703125,0.1220703125
1781665000.8706584,0.25258827514648435,0.14006079711914063,9.952696301269532,0.18310546875,-0.42724609375,-0.18310546875
1781665000.8746583,0.2753331909179687,0.08499415893554688,9.970652813720703,-0.48828125,-0.06103515625,-0.42724609375
1781665000.8786583,0.22266075439453123,0.10773907470703124,9.894038360595703,-0.3662109375,-0.06103515625,-0.30517578125
1781665000.8826582,0.20350714111328125,0.06823474731445311,9.858125335693359,-0.3662109375,0.0,-0.6103515625
1781665000.8866582,0.15682020874023436,0.03591302490234375,9.855731134033203,-0.244140625,-0.18310546875,-0.48828125
1781665000.8906581,0.15682020874023436,-0.0143652099609375,9.923965881347655,-0.1220703125,-0.3662109375,-0.42724609375
1781665000.894658,0.19632453613281248,-0.029927520751953124,9.970652813720703,-0.244140625,-0.6103515625,-0.6103515625
1781665000.898658,0.22744915771484372,0.00239420166015625,10.002974536132811,0.0,-1.0986328125,-0.06103515625
1781665000.902658,0.23104046020507812,0.05027823486328125,10.011354241943359,0.1220703125,-1.3427734375,0.3662109375
1781665000.906658,0.22744915771484372,0.037110125732421874,9.969455712890625,0.3662109375,-1.28173828125,0.732421875
1781665000.910658,0.25258827514648435,0.025139117431640625,9.931148486328125,0.30517578125,-1.3427734375,0.42724609375
1781665000.9146578,0.2813186950683594,0.01915361328125,9.911994873046874,0.244140625,-1.28173828125,0.42724609375
1781665000.9186578,0.29927520751953124,-0.013168109130859374,9.821015209960937,0.1220703125,-0.6103515625,0.3662109375
1781665000.9226577,0.3315969299316406,0.013168109130859374,9.801861596679688,-0.1220703125,-0.6103515625,0.06103515625
1781665000.9266577,0.3495534423828125,0.013168109130859374,9.853336932373047,0.0,-0.244140625,-0.06103515625
1781665000.9306576,0.3651157531738281,-0.0047884033203125,9.90122096557617,-0.244140625,0.1220703125,-0.1220703125
1781665000.9346576,0.36272155151367186,-0.011971008300781249,9.938331091308592,-0.54931640625,0.1220703125,-0.244140625
1781665000.9386575,0.31004911499023435,-0.040701428222656245,9.964667309570311,-0.54931640625,0.0,-0.06103515625
1781665000.9426575,0.27892449340820313,-0.033518823242187495,9.92755718383789,0.0,0.06103515625,-0.1220703125
1781665000.9466574,0.24779987182617186,-0.055066638183593745,9.896432562255859,0.3662109375,0.06103515625,-0.18310546875
1781665000.9506574,0.2346317626953125,-0.022744915771484374,9.884461553955077,0.48828125,0.1220703125,0.06103515625
1781665000.9546573,0.19512743530273435,-0.017956512451171875,9.891644158935547,0.67138671875,0.3662109375,0.1220703125
1781665000.9586573,0.23822306518554687,0.0143652099609375,9.910797772216796,0.54931640625,0.1220703125,0.18310546875
1781665000.9626572,0.239420166015625,0.10295067138671875,9.90241806640625,0.67138671875,0.06103515625,0.244140625
1781665000.9666572,0.23223756103515625,0.16160861206054686,9.91558617553711,0.42724609375,-0.18310546875,0.48828125
1781665000.970657,0.2609679809570312,0.11372457885742186,9.945513696289062,0.30517578125,-0.244140625,0.732421875
1781665000.974657,0.22744915771484372,0.07422025146484375,9.963470208740233,-0.06103515625,-0.244140625,0.6103515625
1781665000.978657,0.2059013427734375,0.04908113403320312,9.951499200439452,-0.42724609375,-0.18310546875,0.1220703125
1781665000.982657,0.19991583862304688,0.022744915771484374,9.93952819213867,-0.3662109375,-0.42724609375,-0.06103515625
1781665000.986657,0.20709844360351562,0.00239420166015625,9.904812268066406,-0.18310546875,-0.48828125,-0.42724609375
1781665000.9906569,0.20709844360351562,-0.058657940673828124,9.910797772216796,-0.06103515625,-0.67138671875,-0.3662109375
1781665000.9946568,0.21188684692382811,-0.017956512451171875,9.95389340209961,0.1220703125,-1.03759765625,-0.54931640625
1781665000.9986567,0.25258827514648435,-0.02154781494140625,9.968258612060547,0.0,-0.8544921875,-0.67138671875
1781665001.0026567,0.2561795776367187,0.023942016601562498,9.947907897949218,-0.18310546875,-0.732421875,-0.54931640625
1781665001.0066566,0.22505495605468748,0.05985504150390625,9.92755718383789,0.06103515625,-1.03759765625,-0.1220703125
1781665001.0106566,0.20949264526367187,0.037110125732421874,9.910797772216796,0.1220703125,-0.91552734375,0.18310546875
1781665001.0146565,0.21068974609375,0.03950432739257812,9.890447058105469,0.06103515625,-0.30517578125,0.06103515625
1781665001.0186565,0.2154781494140625,0.015562310791015624,9.880870251464843,-0.06103515625,0.0,0.1220703125
1781665001.0226564,0.2861070983886719,0.01915361328125,9.886855755615233,0.1220703125,0.0,0.6103515625
1781665001.0266564,0.296881005859375,0.0,9.894038360595703,0.244140625,0.18310546875,0.67138671875
1781665001.0306563,0.3124433166503906,-0.033518823242187495,9.931148486328125,0.244140625,0.18310546875,0.732421875
1781665001.0346563,0.2980781066894531,-0.04668693237304687,9.93952819213867,0.18310546875,-0.06103515625,0.6103515625
1781665001.0386562,0.31004911499023435,-0.029927520751953124,9.964667309570311,0.18310546875,-0.244140625,0.244140625
1781665001.0426562,0.34237083740234375,-0.05626373901367187,9.97783541870117,0.244140625,-0.244140625,-0.18310546875
1781665001.0466561,0.41060558471679687,-0.07541735229492187,10.028113653564452,0.06103515625,-1.0986328125,-0.48828125
1781665001.050656,0.4860229370117187,-0.16160861206054686,10.144232434082031,0.0,-3.11279296875,-1.220703125
1781665001.054656,0.3387795349121094,-0.2609679809570312,10.120290417480469,-0.30517578125,-4.45556640625,-2.50244140625
1781665001.058656,-0.10893617553710937,-0.15083470458984374,9.928754284667969,-0.9765625,-3.90625,-3.96728515625
1781665001.062656,-0.2609679809570312,0.14724340209960937,9.763554370117188,-0.244140625,-2.13623046875,-4.5166015625
1781665001.0666559,-0.1975216369628906,0.4321533996582031,9.404424121093749,1.15966796875,-0.54931640625,-3.96728515625
1781665001.0706558,0.14245499877929688,0.5566518859863281,9.672574707031249,0.6103515625,0.8544921875,-2.0751953125
1781665001.0746558,0.604535919189453,0.34237083740234375,10.219649786376953,-0.8544921875,0.244140625,0.0
1781665001.0786557,0.7302315063476562,0.17238251953125,10.225635290527343,-2.0751953125,-0.91552734375,2.50244140625
1781665001.0826557,0.6368576416015624,0.0,9.949104998779296,-2.3193359375,-2.13623046875,3.90625
1781665001.0866556,0.40940848388671874,-0.14484920043945312,9.892841259765625,-0.732421875,-2.13623046875,4.2724609375
1781665001.0906556,0.016759411621093748,-0.3591302490234375,9.732429748535155,1.28173828125,-0.67138671875,2.86865234375
1781665001.0946555,-0.13766659545898435,-0.4955997436523437,9.490615380859374,2.197265625,1.953125,1.28173828125
1781665001.0986555,0.13168109130859373,-0.2262520568847656,9.751583361816406,2.62451171875,3.84521484375,0.06103515625
1781665001.1026554,0.5243301635742187,0.18076222534179687,9.92755718383789,2.74658203125,4.57763671875,-0.18310546875
1781665001.1066554,0.6643909606933593,0.42975919799804685,9.904812268066406,1.52587890625,3.72314453125,0.732421875
1781665001.1106553,0.6643909606933593,0.4129997863769531,9.989806427001952,-0.6103515625,2.8076171875,1.8310546875
1781665001.1146553,0.5147533569335937,0.26336218261718747,10.177751257324218,-2.3193359375,1.64794921875,2.5634765625
1781665001.1186552,0.34117373657226563,-0.06464344482421874,10.122684619140625,-2.5634765625,-0.3662109375,2.685546875
1781665001.1226552,-0.009576806640625,-0.3076549133300781,9.841365924072266,-1.15966796875,-0.48828125,0.9765625
1781665001.126655,-0.29448680419921874,-0.39983167724609375,9.734823950195311,0.67138671875,1.0986328125,-0.9765625
1781665001.130655,-0.354341845703125,-0.3806780639648437,9.911994873046874,2.0751953125,1.52587890625,-2.74658203125
1781665001.134655,-0.10773907470703124,-0.21188684692382811,10.0748005859375,2.5634765625,0.79345703125,-3.11279296875
1781665001.138655,0.24061726684570311,0.16998831787109375,10.231620794677733,1.28173828125,-0.6103515625,-2.38037109375
1781665001.142655,0.42497079467773435,0.4704606262207031,10.305841046142577,0.0,-3.11279296875,-0.18310546875
1781665001.1466548,0.41539398803710936,0.5015852478027344,10.085574493408203,-1.0986328125,-4.33349609375,1.708984375
1781665001.1506548,0.15562310791015624,0.28969840087890625,9.848548529052733,-1.46484375,-4.69970703125,2.197265625
1781665001.1546547,-0.03232172241210937,0.008379705810546874,9.704896429443359,-1.64794921875,-3.173828125,1.5869140625
1781665001.1586547,-0.06823474731445311,-0.15203180541992187,9.618705169677733,-0.8544921875,-1.3427734375,0.30517578125
1781665001.1626546,0.11851298217773437,-0.16280571289062498,9.673771807861328,-0.06103515625,0.30517578125,-0.79345703125
1781665001.1666546,0.32920272827148434,-0.015562310791015624,9.955090502929687,0.42724609375,0.91552734375,-1.3427734375
1781665001.1706545,0.4333505004882812,0.05027823486328125,10.078391888427733,0.30517578125,0.67138671875,-0.732421875
1781665001.1746545,0.5422866760253906,0.03950432739257812,10.044873065185547,-0.54931640625,-0.9765625,0.18310546875
1781665001.1786544,0.5710170959472656,0.08738836059570312,10.092757098388672,-1.0986328125,-1.8310546875,0.91552734375
1781665001.1826544,0.5159504577636719,-0.00718260498046875,10.025719451904296,-1.220703125,-2.38037109375,1.28173828125
1781665001.1866543,0.39983167724609375,-0.18315642700195311,9.809044201660155,-0.48828125,-2.44140625,1.03759765625
1781665001.1906543,0.2920926025390625,-0.28490999755859375,9.701305126953125,0.30517578125,-1.5869140625,0.06103515625
1781665001.1946542,0.28012159423828126,-0.22505495605468748,9.794678991699218,1.15966796875,-0.18310546875,-0.732421875
1781665001.1986542,0.3315969299316406,-0.10654197387695312,9.810241302490233,1.3427734375,0.9765625,-1.3427734375
1781665001.2026541,0.4369418029785156,0.058657940673828124,9.809044201660155,1.28173828125,1.52587890625,-1.40380859375
1781665001.206654,0.4991910461425781,0.22864625854492185,9.935936889648437,0.9765625,1.77001953125,-0.6103515625
1781665001.210654,0.565031591796875,0.23822306518554687,10.005368737792969,-0.18310546875,1.64794921875,0.18310546875
1781665001.214654,0.4848258361816406,0.08140285644531249,9.92755718383789,-0.79345703125,0.79345703125,0.79345703125
1781665001.218654,0.258573779296875,-0.00239420166015625,9.874884747314452,-0.67138671875,1.0986328125,1.220703125
1781665001.2226539,0.00239420166015625,-0.044292730712890624,9.874884747314452,0.1220703125,2.0751953125,1.15966796875
1781665001.2266538,-0.16998831787109375,-0.11133037719726561,9.773131176757811,1.0986328125,2.5634765625,0.67138671875
1781665001.2306538,-0.15562310791015624,-0.11851298217773437,9.843760125732421,1.77001953125,2.13623046875,0.54931640625
1781665001.2346537,0.031124621582031248,0.00718260498046875,10.147823736572265,1.52587890625,1.8310546875,0.42724609375
1781665001.2386537,0.24181436767578124,0.06584054565429687,10.26035121459961,0.8544921875,0.42724609375,0.6103515625
1781665001.2426536,0.31962592163085934,0.12808978881835936,10.164583148193358,-0.1220703125,-1.64794921875,0.67138671875
1781665001.2466536,0.2442085693359375,0.13646949462890623,10.078391888427733,-0.3662109375,-2.8076171875,1.0986328125
1781665001.2506535,0.051475335693359374,0.08259995727539061,9.96586441040039,-0.8544921875,-2.9296875,0.67138671875
1781665001.2546535,-0.062249243164062495,-0.020350714111328123,9.751583361816406,-0.48828125,-2.62451171875,-0.54931640625
1781665001.2586534,-0.02633621826171875,-0.058657940673828124,9.710881933593749,-0.18310546875,-1.89208984375,-1.46484375
1781665001.2626534,0.14125789794921875,0.005985504150390624,9.86291373901367,0.1220703125,-1.52587890625,-2.13623046875
1781665001.2666533,0.36272155151367186,0.0718260498046875,9.986215124511718,-0.3662109375,-1.40380859375,-1.77001953125
1781665001.2706532,0.46806642456054687,0.11851298217773437,9.981426721191406,-0.6103515625,-1.77001953125,-1.40380859375
1781665001.2746532,0.47285482788085936,0.13646949462890623,9.993397729492187,-0.79345703125,-2.13623046875,0.0
1781665001.2786531,0.41060558471679687,0.07900865478515624,9.969455712890625,-0.8544921875,-1.64794921875,0.6103515625
1781665001.282653,0.32920272827148434,-0.055066638183593745,9.80066449584961,-0.244140625,-1.03759765625,1.0986328125
1781665001.286653,0.2657563842773437,-0.12210428466796874,9.731232647705077,0.48828125,-0.30517578125,0.8544921875
1781665001.290653,0.20949264526367187,-0.15083470458984374,9.749189160156249,1.0986328125,1.03759765625,0.6103515625
1781665001.294653,0.277727392578125,-0.0909796630859375,9.78031378173828,1.3427734375,1.77001953125,0.244140625
1781665001.298653,0.3794809631347656,0.027533319091796873,9.86411083984375,1.46484375,1.953125,0.3662109375
1781665001.3026528,0.44053310546874996,0.14245499877929688,9.98501802368164,0.79345703125,1.5869140625,0.42724609375
1781665001.3066528,0.43933600463867184,0.18555062866210936,10.075997686767577,0.06103515625,1.3427734375,0.9765625
1781665001.3106527,0.3962403747558593,0.07302315063476562,10.032902056884765,-0.67138671875,0.54931640625,1.03759765625
1781665001.3146527,0.24779987182617186,0.011971008300781249,9.949104998779296,-0.67138671875,0.30517578125,0.48828125
1781665001.3186526,0.04908113403320312,-0.033518823242187495,9.885658654785155,-0.30517578125,0.67138671875,-0.1220703125
1781665001.3226526,-0.02154781494140625,-0.105344873046875,9.843760125732421,0.18310546875,0.79345703125,-0.91552734375
1781665001.3266525,0.0,-0.06344634399414062,9.882067352294921,0.6103515625,0.30517578125,-1.220703125
1781665001.3306525,0.14604630126953125,0.037110125732421874,10.035296258544921,0.54931640625,-0.42724609375,-0.9765625
1781665001.3346524,0.26815058593749996,0.10654197387695312,10.110713610839843,0.1220703125,-1.52587890625,-0.42724609375
1781665001.3386524,0.3172317199707031,0.11372457885742186,10.081983190917969,-0.54931640625,-2.685546875,0.3662109375
1781665001.3426523,0.2597708801269531,0.07900865478515624,10.04846436767578,-0.732421875,-3.11279296875,0.79345703125
1781665001.3466523,0.1867477294921875,-0.017956512451171875,9.919177478027343,-0.42724609375,-2.62451171875,0.54931640625
1781665001.3506522,0.1388636962890625,-0.07302315063476562,9.810241302490233,-0.42724609375,-1.89208984375,0.06103515625
1781665001.3546522,0.20709844360351562,-0.08259995727539061,9.753977563476562,0.30517578125,-1.15966796875,-0.30517578125
1781665001.358652,0.30885201416015623,-0.033518823242187495,9.813832604980469,0.67138671875,-0.3662109375,-0.54931640625
1781665001.362652,0.39983167724609375,0.02633621826171875,9.885658654785155,-0.06103515625,-0.06103515625,-0.48828125
1781665001.366652,0.4704606262207031,0.044292730712890624,9.910797772216796,-0.06103515625,-0.06103515625,0.06103515625
1781665001.370652,0.47644613037109373,0.10893617553710937,9.973047015380859,-0.67138671875,-0.244140625,0.18310546875
1781665001.374652,0.4261678955078125,0.0526724365234375,9.945513696289062,-0.54931640625,-0.06103515625,0.732421875
1781665001.3786519,0.3507505432128906,-0.0383072265625,9.911994873046874,-0.30517578125,-0.1220703125,0.91552734375
1781665001.3826518,0.2920926025390625,-0.14724340209960937,9.861716638183593,0.1220703125,0.18310546875,0.48828125
1781665001.3866518,0.19512743530273435,-0.17597382202148437,9.843760125732421,0.54931640625,0.79345703125,0.0
1781665001.3906517,0.16519991455078123,-0.1304839904785156,9.829394915771484,1.15966796875,1.3427734375,-0.3662109375
1781665001.3946517,0.1867477294921875,-0.011971008300781249,9.828197814941406,1.52587890625,1.8310546875,-0.42724609375
1781665001.3986516,0.19991583862304688,0.1484405029296875,9.941922393798828,1.3427734375,1.40380859375,-0.30517578125
1781665001.4026515,0.2262520568847656,0.22505495605468748,9.993397729492187,0.48828125,1.40380859375,0.18310546875
1781665001.4066515,0.15442600708007811,0.24181436767578124,10.032902056884765,-0.3662109375,0.6103515625,0.79345703125
1781665001.4106514,0.10654197387695312,0.2154781494140625,9.994594830322265,-0.54931640625,0.06103515625,1.0986328125
1781665001.4146514,-0.003591302490234375,0.11133037719726561,9.949104998779296,-0.732421875,0.0,1.03759765625
1781665001.4186513,-0.034715924072265626,0.003591302490234375,9.93952819213867,-0.6103515625,-0.1220703125,0.6103515625
1781665001.4226513,0.03950432739257812,-0.08140285644531249,9.926360083007811,-0.3662109375,-0.6103515625,0.0
1781665001.4266512,0.11731588134765625,-0.14245499877929688,9.9981861328125,-0.06103515625,-1.40380859375,-0.18310546875
1781665001.4306512,0.23343466186523437,-0.1005564697265625,10.036493359375,-0.1220703125,-1.953125,-0.54931640625
1781665001.4346511,0.3016694091796875,-0.0430956298828125,10.028113653564452,0.244140625,-2.8076171875,-0.6103515625
1781665001.438651,0.34835634155273437,-0.0143652099609375,9.982623822021484,0.1220703125,-3.11279296875,-0.732421875
1781665001.442651,0.3232172241210937,0.03950432739257812,9.94072529296875,-0.30517578125,-2.9296875,-0.67138671875
1781665001.446651,0.316034619140625,0.03950432739257812,9.83777462158203,-0.18310546875,-2.3193359375,-0.8544921875
1781665001.450651,0.3112462158203125,0.047884033203124995,9.765948571777344,-0.244140625,-1.40380859375,-0.54931640625
