timestamp,acc_x,acc_y,acc_z,gyro_x,gyro_y,gyro_z
1781501226.0172029,1.3970166687011718,-4.201823913574218,7.930792999267577,-10.80322265625,9.521484375,21.42333984375
1781501226.0212028,1.4041992736816404,-4.431667272949219,7.93558140258789,-8.6669921875,9.765625,24.169921875
1781501226.0250826,1.4532804077148436,-4.687846850585937,7.943961108398437,-5.67626953125,9.82666015625,26.91650390625
1781501226.0290825,1.4233528869628906,-4.866214874267578,8.022969763183593,-2.25830078125,9.82666015625,28.80859375
1781501226.0330825,1.4030021728515625,-5.136759661865234,8.080430603027343,1.708984375,9.82666015625,30.1513671875
1781501226.0370824,1.4209586853027343,-5.409698651123047,8.160636358642577,5.79833984375,8.72802734375,30.57861328125
1781501226.0410824,1.3467384338378905,-5.622782598876952,8.271966735839843,10.31494140625,8.23974609375,30.33447265625
1781501226.0450823,1.2785036865234374,-5.8610056640625,8.386888415527343,13.916015625,8.4228515625,29.296875
1781501226.0490823,1.2773065856933592,-6.084863519287109,8.494627490234375,18.37158203125,7.62939453125,27.587890625
1781501226.0530822,1.3156138122558594,-6.332663391113281,8.747215765380858,22.52197265625,6.65283203125,25.2685546875
1781501226.0570822,1.3778630554199218,-6.490680700683593,9.13627353515625,27.03857421875,5.0048828125,22.39990234375
1781501226.0610821,1.4736311218261717,-6.685808135986328,9.520542901611327,32.28759765625,2.01416015625,18.98193359375
1781501226.065082,1.571793389892578,-6.841431243896484,9.87727894897461,37.41455078125,-2.25830078125,15.5029296875
1781501226.069082,1.608903515625,-7.013813763427734,10.326191760253906,41.9921875,-6.89697265625,11.65771484375
1781501226.073082,1.6220716247558593,-7.218518005371093,10.498574279785156,45.95947265625,-11.90185546875,7.26318359375
1781501226.077082,1.6364368347167968,-7.213729602050781,10.639832177734375,49.37744140625,-16.7236328125,2.86865234375
1781501226.0810819,1.5969325073242187,-7.201758593749999,10.793061083984375,53.5888671875,-21.97265625,-2.3193359375
1781501226.0850818,1.6256629272460936,-6.92043989868164,10.678139404296875,57.31201171875,-25.93994140625,-7.50732421875
1781501226.0890818,1.4736311218261717,-6.836642840576172,10.576385833740234,59.814453125,-30.57861328125,-12.6953125
1781501226.0930817,1.3467384338378905,-6.698976245117187,10.196904870605469,62.56103515625,-34.72900390625,-18.12744140625
1781501226.0970817,1.1324573852539062,-6.511031414794921,9.789890588378906,63.5986328125,-36.31591796875,-23.681640625
1781501226.1010816,1.0390835205078124,-6.260837341308593,9.39125601196289,66.95556640625,-37.41455078125,-29.11376953125
1781501226.1050816,1.0666168395996094,-5.936423016357422,9.119514123535156,67.44384765625,-37.04833984375,-33.203125
1781501226.1090815,1.0283096130371092,-5.578489868164062,8.77115778198242,68.78662109375,-37.2314453125,-37.17041015625
1781501226.1130815,1.3634978454589843,-5.1319712585449215,9.088389501953124,69.03076171875,-38.9404296875,-40.283203125
1781501226.1170814,1.446097802734375,-4.823119244384765,9.062053283691405,68.603515625,-43.27392578125,-43.701171875
1781501226.1210814,1.016338604736328,-4.333505004882812,8.264784130859374,67.9931640625,-42.78564453125,-45.95947265625
1781501226.1250813,0.9265560424804687,-4.114435552978516,7.844601739501953,67.138671875,-40.52734375,-48.4619140625
1781501226.1290812,1.1468225952148436,-3.886986395263672,8.07683930053711,64.27001953125,-38.818359375,-49.98779296875
1781501226.1330812,1.291671795654297,-3.6008792968749996,8.2360537109375,60.302734375,-38.330078125,-50.35400390625
1781501226.1370811,1.3299790222167969,-2.9508535461425778,8.020575561523437,49.072265625,-32.5927734375,-48.88916015625
1781501226.141081,1.4879963317871092,-2.521094348144531,8.143876947021484,43.0908203125,-30.029296875,-46.5087890625
1781501226.145081,1.7681179260253905,-2.2385785522460937,8.371326104736328,37.4755859375,-29.541015625,-43.15185546875
1781501226.149081,1.936909143066406,-1.8997990173339843,8.555679632568358,31.3720703125,-28.86962890625,-38.63525390625
1781501226.153081,2.1212626708984375,-1.668758557128906,8.593986859130858,26.06201171875,-28.9306640625,-33.75244140625
1781501226.157081,2.2098481323242187,-1.4520833068847656,8.541314422607421,22.216796875,-29.23583984375,-28.1982421875
1781501226.1610808,2.3678654418945313,-1.429338391113281,8.493430389404296,18.310546875,-29.35791015625,-22.88818359375
1781501226.1650808,2.398990063476562,-1.5215151550292967,8.407239129638672,14.2822265625,-27.40478515625,-17.7001953125
1781501226.1690807,2.436100189208984,-1.7022773803710936,8.225279803466796,9.82666015625,-24.4140625,-12.63427734375
1781501226.1730807,2.583343591308594,-1.8710685974121093,8.081627703857421,5.37109375,-20.263671875,-7.568359375
1781501226.1770806,2.70065947265625,-2.031480108642578,8.050503082275391,1.8310546875,-15.7470703125,-2.9296875
1781501226.1810806,2.901772412109375,-2.2086510314941403,8.099584216308592,-0.3662109375,-12.39013671875,1.708984375
1781501226.1850805,3.0633810241699218,-2.4253262817382812,8.213308795166014,-2.13623046875,-9.521484375,6.2255859375
1781501226.1890805,3.2501287536621093,-2.6719290527343746,8.239645013427733,-3.60107421875,-6.34765625,10.498046875
1781501226.1930804,3.314772198486328,-2.913743420410156,8.064868292236328,-4.2724609375,-2.44140625,14.46533203125
1781501226.1970804,3.3542765258789062,-3.1603461914062496,7.9655089233398435,-4.5166015625,2.5634765625,18.12744140625
1781501226.2010803,3.380612744140625,-3.384204046630859,7.775169891357422,-4.39453125,8.23974609375,20.751953125
1781501226.2050803,3.412934466552734,-3.5889082885742187,7.663839514160156,-4.150390625,15.380859375,23.13232421875
1781501226.2090802,3.4249054748535155,-3.7385458923339843,7.6087728759765625,-3.72314453125,22.39990234375,24.84130859375
1781501226.2130802,3.418919970703125,-3.8474820678710935,7.650671405029296,-3.41796875,29.35791015625,26.3671875
1781501226.21708,3.4201170715332028,-3.915716815185547,7.783549597167968,-3.60107421875,35.888671875,27.587890625
1781501226.22108,3.3446997192382812,-4.021061688232422,7.861361151123046,-3.47900390625,42.17529296875,28.38134765625
1781501226.22508,3.289633081054687,-4.045003704833984,8.008604553222655,-3.23486328125,47.7294921875,29.47998046875
1781501226.22908,3.2321722412109373,-4.000710974121094,8.204929089355469,-2.5634765625,52.24609375,29.78515625
1781501226.23308,3.1495722839355467,-3.9228994201660154,8.558073834228516,-3.60107421875,56.2744140625,30.6396484375
1781501226.2370799,2.9472622436523435,-3.912125512695312,8.665812908935546,-4.57763671875,58.77685546875,31.1279296875
1781501226.2410798,2.7054478759765623,-3.8582559753417964,8.712499841308594,-5.7373046875,61.34033203125,31.31103515625
1781501226.2450798,2.395398760986328,-3.778050219726562,8.869320050048827,-7.01904296875,65.0634765625,31.1279296875
1781501226.2490797,2.128445275878906,-3.758896606445312,8.945934503173827,-8.544921875,67.626953125,30.76171875
1781501226.2530797,1.8902222106933593,-3.8570588745117185,9.100360510253905,-10.25390625,69.27490234375,30.1513671875
1781501226.2570796,1.7130512878417967,-3.8893805969238278,9.326612567138671,-11.8408203125,69.76318359375,29.35791015625
1781501226.2610795,1.4963760375976562,-3.928884924316406,9.477447271728515,-13.36669921875,68.9697265625,27.89306640625
1781501226.2650795,1.2485761657714842,-4.010287780761718,9.39125601196289,-13.73291015625,67.56591796875,26.7333984375
1781501226.2690794,1.0366893188476562,-4.064157318115234,9.62109937133789,-15.0146484375,66.46728515625,24.84130859375
1781501226.2730794,1.0127473022460938,-4.205415216064453,9.83777462158203,-15.44189453125,63.04931640625,22.64404296875
1781501226.2770793,0.9971849914550781,-4.37300933227539,10.091559997558592,-15.869140625,57.373046875,20.263671875
1781501226.2810793,0.8990227233886718,-4.580107775878906,10.269928021240235,-16.11328125,51.1474609375,18.06640625
1781501226.2850792,0.7541735229492187,-4.6651019348144525,10.25316860961914,-16.7236328125,46.630859375,15.0146484375
1781501226.2890792,0.5578489868164063,-4.729745379638672,10.01733974609375,-15.93017578125,43.02978515625,11.53564453125
1781501226.2930791,0.44891281127929683,-4.799177227783203,9.771934075927733,-14.7705078125,40.771484375,7.50732421875
1781501226.297079,0.4333505004882812,-4.8698061767578125,9.665392102050781,-13.7939453125,39.1845703125,3.7841796875
1781501226.301079,0.47884033203125,-4.975151049804687,9.64623848876953,-12.26806640625,37.109375,-0.1220703125
1781501226.305079,0.5853823059082031,-5.017049578857422,9.648632690429688,-10.498046875,33.50830078125,-3.7841796875
1781501226.309079,0.6919242797851562,-5.045779998779296,9.712079034423828,-8.48388671875,29.296875,-7.080078125
1781501226.3130789,0.7170633972167968,-5.029020587158203,9.78629928588867,-6.65283203125,24.7802734375,-10.43701171875
1781501226.3170788,0.7170633972167968,-5.029020587158203,9.6917283203125,-4.21142578125,20.3857421875,-13.36669921875
1781501226.3210788,0.6763619689941406,-5.019443780517578,9.588777648925781,-2.0751953125,16.9677734375,-16.4794921875
1781501226.3250787,0.6332663391113281,-5.009866973876953,9.478644372558593,-0.244140625,14.6484375,-19.53125
1781501226.3290787,0.6177040283203125,-4.993107562255859,9.369708197021485,1.52587890625,13.61083984375,-22.5830078125
1781501226.3330786,0.6691793640136718,-4.953603234863281,9.27633433227539,3.23486328125,12.0849609375,-24.96337890625
1781501226.3370786,0.6931213806152343,-4.817133740234374,9.270348828125,4.69970703125,10.986328125,-26.9775390625
1781501226.3410785,0.7649474304199219,-4.704606262207031,9.209296685791015,6.04248046875,10.009765625,-28.80859375
1781501226.3450785,0.8080430603027343,-4.6064439941406246,9.107543115234375,7.62939453125,7.9345703125,-30.1513671875
1781501226.3490784,0.8403647827148437,-4.429273071289062,9.045293872070312,8.97216796875,6.4697265625,-30.8837890625
1781501226.3530784,0.9085995300292968,-4.303577484130859,8.978256225585938,10.43701171875,5.126953125,-31.3720703125
1781501226.3570783,0.9074024291992187,-4.182670300292968,8.82383021850586,11.3525390625,4.57763671875,-30.8837890625
1781501226.3610783,0.9169792358398436,-4.073734124755859,8.744821563720702,12.02392578125,4.2724609375,-30.517578125
1781501226.3650782,0.9612719665527343,-3.9504327392578125,8.723273748779297,12.6953125,4.82177734375,-29.96826171875
1781501226.3690782,1.0211270080566406,-3.8798037902832028,8.718485345458983,12.939453125,5.18798828125,-28.86962890625
1781501226.373078,1.0498574279785156,-3.7696705139160156,8.729259252929687,13.24462890625,5.31005859375,-27.28271484375
1781501226.377078,1.0869675537109373,-3.6583401367187496,8.821436016845702,12.75634765625,5.7373046875,-25.634765625
1781501226.381078,1.0594342346191405,-3.537432952880859,8.88009395751953,12.3291015625,5.615234375,-23.86474609375
1781501226.385078,1.0378864196777342,-3.4859576171874997,8.890867864990234,12.3291015625,4.82177734375,-21.91162109375
1781501226.389078,1.0175357055664063,-3.381809844970703,8.871714251708983,12.0849609375,3.90625,-19.47021484375
1781501226.3930779,0.9373299499511718,-3.314772198486328,8.819041815185546,11.77978515625,3.11279296875,-17.4560546875
1781501226.3970778,0.8403647827148437,-3.2513258544921873,8.726865051269531,11.3525390625,2.3193359375,-15.07568359375
1781501226.4010777,0.8008604553222656,-3.189076611328125,8.607154968261717,11.16943359375,1.8310546875,-12.939453125
1781501226.4050777,0.7134720947265625,-3.1555577880859373,8.514978204345702,10.25390625,1.46484375,-11.1083984375
1781501226.4090776,0.63206923828125,-3.1220389648437497,8.431181146240235,9.3994140625,1.5869140625,-9.27734375
1781501226.4130776,0.5973533142089843,-3.0897172424316404,8.367734802246094,8.7890625,1.77001953125,-7.32421875
1781501226.4170775,0.5901707092285156,-3.0310593017578125,8.360552197265624,7.62939453125,1.953125,-5.7373046875
1781501226.4210775,0.5889736083984375,-3.0119056884765625,8.361749298095702,6.28662109375,1.28173828125,-3.84521484375
1781501226.4250774,0.5686228942871093,-2.9891607727050777,8.413224633789062,4.638671875,0.6103515625,-1.708984375
1781501226.4290774,0.5997475158691405,-2.9448680419921875,8.462305767822265,2.62451171875,-0.06103515625,0.30517578125
1781501226.4330773,0.6093243225097655,-2.9604303527832028,8.543708624267577,0.6103515625,-1.15966796875,2.197265625
1781501226.4370773,0.6548141540527344,-2.952050646972656,8.589198455810546,-1.8310546875,-2.197265625,4.2724609375
1781501226.4410772,0.6775590698242188,-2.986766571044922,8.611943371582031,-4.21142578125,-2.99072265625,6.28662109375
1781501226.4450772,0.719457598876953,-3.008314385986328,8.640673791503906,-6.2255859375,-3.60107421875,8.36181640625
1781501226.4490771,0.7924807495117187,-3.0430303100585934,8.643067993164061,-8.48388671875,-3.90625,10.25390625
1781501226.453077,0.8750807067871094,-3.1352070739746094,8.696937530517578,-10.19287109375,-4.39453125,12.20703125
1781501226.457077,0.9552864624023437,-3.24294614868164,8.726865051269531,-11.71875,-4.82177734375,13.916015625
1781501226.461077,1.0702081420898437,-3.35188232421875,8.78552299194336,-12.8173828125,-5.06591796875,15.5029296875
1781501226.465077,1.2210428466796874,-3.497928625488281,8.884882360839843,-13.97705078125,-5.615234375,17.27294921875
1781501226.4690769,1.322796417236328,-3.6332010192871094,8.979453326416015,-14.46533203125,-6.28662109375,18.798828125
1781501226.4730768,1.4257470886230468,-3.73495458984375,9.038111267089842,-14.5263671875,-6.4697265625,20.32470703125
1781501226.4770768,1.4927847351074217,-3.871424084472656,9.052476477050782,-14.22119140625,-6.34765625,21.240234375
1781501226.4810767,1.5705962890624998,-3.9911341674804683,9.042899670410156,-13.671875,-5.859375,21.97265625
1781501226.4850767,1.562216583251953,-4.10485874633789,9.023746057128905,-13.0615234375,-5.31005859375,22.3388671875
1781501226.4890766,1.5981296081542968,-4.234145635986328,8.972270721435546,-11.90185546875,-4.638671875,22.3388671875
1781501226.4930766,1.581370196533203,-4.374206433105469,8.892064965820312,-10.19287109375,-3.72314453125,22.15576171875
1781501226.4970765,1.5634136840820312,-4.493916516113281,8.81664761352539,-9.033203125,-2.5634765625,21.484375
1781501226.5010765,1.5562310791015623,-4.5585599609375,8.79150849609375,-6.89697265625,-1.89208984375,20.81298828125
1781501226.5050764,1.5167267517089842,-4.632780212402343,8.69454332885742,-5.18798828125,-0.67138671875,19.6533203125
1781501226.5090764,1.4532804077148436,-4.704606262207031,8.661024505615234,-3.5400390625,0.30517578125,18.24951171875
1781501226.5130763,1.4006079711914061,-4.687846850585937,8.661024505615234,-1.64794921875,0.91552734375,16.9677734375
1781501226.5170763,1.408987677001953,-4.659116430664063,8.653841900634765,-0.54931640625,1.3427734375,15.13671875
1781501226.5210762,1.3359645263671873,-4.65432802734375,8.735244757080078,0.79345703125,2.25830078125,13.73291015625
1781501226.5250762,1.3048399047851562,-4.642357019042969,8.814253411865234,1.15966796875,2.25830078125,12.3291015625
1781501226.529076,1.3024457031249999,-4.556165759277343,8.792705596923827,1.89208984375,2.13623046875,10.68115234375
1781501226.533076,1.24498486328125,-4.473565802001953,8.90643017578125,2.197265625,2.62451171875,9.3994140625
1781501226.537076,1.2509703674316406,-4.416104962158203,8.949525805664061,1.89208984375,2.44140625,7.75146484375
1781501226.541076,1.2401964599609374,-4.3442789123535155,9.009380847167968,2.0751953125,2.44140625,6.7138671875
1781501226.545076,1.246181964111328,-4.311957189941406,9.04649097290039,1.708984375,2.62451171875,5.4931640625
1781501226.5490758,1.274912384033203,-4.2892122741699215,9.077615594482422,0.9765625,2.50244140625,4.638671875
1781501226.5530758,1.2605471740722656,-4.264073156738281,9.111134417724609,0.48828125,2.38037109375,3.60107421875
1781501226.5570757,1.2808978881835937,-4.188655804443359,9.093177905273437,0.54931640625,2.0751953125,3.11279296875
1781501226.5610757,1.2808978881835937,-4.14316597290039,9.066841687011719,0.18310546875,1.953125,2.38037109375
1781501226.5650756,1.2773065856933592,-4.145560174560547,9.017760552978515,0.244140625,1.46484375,1.8310546875
1781501226.5690756,1.2677297790527342,-4.158728283691406,8.96269391479492,0.244140625,1.40380859375,0.9765625
1781501226.5730755,1.254561669921875,-4.171896392822266,8.933963494873046,0.18310546875,1.46484375,0.6103515625
1781501226.5770755,1.2234370483398436,-4.153939880371094,8.878896856689453,0.48828125,1.5869140625,0.30517578125
1781501226.5810754,1.2018892333984375,-4.210203619384766,8.833407025146483,0.79345703125,1.64794921875,-0.30517578125
1781501226.5850754,1.2018892333984375,-4.191050006103516,8.817844714355468,0.9765625,2.13623046875,-0.54931640625
1781501226.5890753,1.1743559143066407,-4.1766847961425775,8.777143286132812,1.220703125,2.197265625,-0.91552734375
1781501226.5930753,1.1516109985351561,-4.146757275390625,8.735244757080078,1.64794921875,2.13623046875,-1.15966796875
1781501226.5970752,1.1384428894042968,-4.083310931396484,8.716091143798828,2.13623046875,1.953125,-1.15966796875
1781501226.6010752,1.1085153686523437,-4.070142822265625,8.730456353759765,2.50244140625,1.89208984375,-1.0986328125
1781501226.6050751,1.1049240661621094,-4.089296435546875,8.711302740478516,2.5634765625,1.52587890625,-1.15966796875
1781501226.609075,1.0857704528808594,-4.040215301513672,8.705317236328124,2.685546875,1.0986328125,-1.28173828125
1781501226.613075,1.0630255371093749,-4.004302276611328,8.699331732177734,2.685546875,1.220703125,-1.03759765625
1781501226.617075,1.054645831298828,-3.9707834533691404,8.710105639648438,2.685546875,0.9765625,-1.03759765625
1781501226.621075,1.0797849487304687,-3.9516298400878904,8.723273748779297,2.13623046875,0.67138671875,-0.54931640625
1781501226.6250749,1.073799444580078,-3.883395092773437,8.761580975341797,1.52587890625,0.42724609375,-0.244140625
1781501226.6290748,1.0893617553710937,-3.8666356811523435,8.792705596923827,1.03759765625,0.1220703125,0.18310546875
1781501226.6330748,1.1145008728027344,-3.8235400512695312,8.811859210205078,0.6103515625,-0.244140625,0.8544921875
1781501226.6370747,1.150413897705078,-3.7792473205566406,8.834604125976561,-0.06103515625,-0.06103515625,1.5869140625
1781501226.6410747,1.149216796875,-3.7385458923339843,8.84178673095703,-0.79345703125,-0.6103515625,2.0751953125
1781501226.6450746,1.1851298217773436,-3.756502404785156,8.86094034423828,-1.46484375,-0.9765625,2.86865234375
1781501226.6490746,1.2102689392089843,-3.758896606445312,8.856151940917968,-2.25830078125,-1.28173828125,3.47900390625
1781501226.6530745,1.2306196533203124,-3.7421371948242186,8.896853369140624,-2.685546875,-1.77001953125,4.33349609375
1781501226.6570745,1.2832920898437499,-3.763685009765625,8.904035974121093,-3.11279296875,-2.0751953125,5.31005859375
1781501226.6610744,1.2808978881835937,-3.7529111022949215,8.864531646728516,-3.2958984375,-2.5634765625,5.92041015625
1781501226.6650743,1.2820949890136717,-3.7612908081054686,8.839392529296875,-3.662109375,-3.0517578125,6.34765625
1781501226.6690743,1.2892775939941405,-3.81156904296875,8.807070806884765,-3.72314453125,-3.41796875,6.8359375
1781501226.6730742,1.2725181823730467,-3.8187516479492185,8.765172277832031,-3.662109375,-3.662109375,7.2021484375
1781501226.6770742,1.255758770751953,-3.833116857910156,8.738836059570312,-3.90625,-3.35693359375,7.75146484375
1781501226.6810741,1.2497732666015624,-3.834313958740234,8.72087954711914,-4.08935546875,-3.5400390625,7.87353515625
1781501226.685074,1.2677297790527342,-3.877409588623047,8.725667950439453,-4.5166015625,-3.60107421875,7.6904296875
1781501226.689074,1.2222399475097656,-3.8762124877929685,8.725667950439453,-4.45556640625,-3.47900390625,7.87353515625
1781501226.693074,1.2318167541503906,-3.877409588623047,8.736441857910156,-5.18798828125,-3.60107421875,7.75146484375
1781501226.697074,1.2078747375488281,-3.845087866210937,8.752004168701172,-5.79833984375,-3.96728515625,8.11767578125
1781501226.701074,1.1540052001953125,-3.840299462890625,8.738836059570312,-6.591796875,-4.21142578125,7.9345703125
1781501226.7050738,1.1324573852539062,-3.833116857910156,8.71489404296875,-6.9580078125,-4.5166015625,8.056640625
1781501226.7090738,1.0953472595214844,-3.84987626953125,8.68257232055664,-7.26318359375,-4.5166015625,7.99560546875
1781501226.7130737,1.0821791503906248,-3.8750153869628905,8.719682446289061,-7.75146484375,-5.126953125,8.11767578125
1781501226.7170737,1.0977414611816405,-3.892971899414062,8.728062152099609,-8.36181640625,-5.0048828125,7.6904296875
1781501226.7210736,1.1085153686523437,-3.9372646301269527,8.708908538818358,-9.09423828125,-5.79833984375,8.056640625
1781501226.7250736,1.1037269653320312,-3.9600095458984375,8.693346228027343,-9.27734375,-5.67626953125,7.75146484375
1781501226.7290735,1.1252747802734375,-4.016273284912109,8.668207110595702,-9.09423828125,-5.859375,7.8125
1781501226.7330735,1.158793603515625,-4.065354418945312,8.680178118896483,-9.6435546875,-5.7373046875,7.38525390625
1781501226.7370734,1.1671733093261718,-4.086902233886718,8.67658681640625,-10.07080078125,-5.37109375,7.568359375
1781501226.7410734,1.2054805358886718,-4.134786267089844,8.712499841308594,-10.31494140625,-5.2490234375,7.4462890625
1781501226.7450733,1.2294225524902342,-4.185064501953125,8.75320126953125,-10.43701171875,-5.55419921875,7.62939453125
1781501226.7490733,1.3060370056152344,-4.220977526855468,8.82383021850586,-11.04736328125,-5.37109375,8.11767578125
1781501226.7530732,1.3335703247070312,-4.228160131835938,8.890867864990234,-11.474609375,-5.615234375,8.72802734375
1781501226.7570732,1.3455413330078123,-4.217386224365234,8.91840118408203,-11.90185546875,-5.79833984375,8.7890625
1781501226.761073,1.3431471313476562,-4.226963031005859,8.930372192382812,-12.0849609375,-5.79833984375,9.46044921875
1781501226.765073,1.313219610595703,-4.266467358398438,8.93156929321289,-12.39013671875,-5.9814453125,9.94873046875
1781501226.769073,1.2797007873535156,-4.262876055908203,8.926780889892578,-12.0849609375,-5.9814453125,10.25390625
1781501226.773073,1.2892775939941405,-4.291606475830078,8.948328704833983,-11.90185546875,-6.2255859375,10.68115234375
1781501226.777073,1.274912384033203,-4.3442789123535155,8.96269391479492,-11.474609375,-6.40869140625,10.6201171875
1781501226.7810729,1.2593500732421874,-4.417302062988281,9.029731561279297,-11.1083984375,-6.77490234375,10.7421875
1781501226.7850728,1.2880804931640624,-4.480748406982421,9.095572106933593,-10.986328125,-7.568359375,10.986328125
1781501226.7890728,1.2737152832031249,-4.531026641845703,9.135076434326171,-10.3759765625,-8.056640625,10.92529296875
1781501226.7930727,1.2976572998046874,-4.589684582519531,9.127893829345702,-10.19287109375,-8.6669921875,10.6201171875
1781501226.7970726,1.3168109130859373,-4.602852691650391,9.105148913574219,-10.07080078125,-8.4228515625,10.3759765625
1781501226.8010726,1.3287819213867187,-4.695029455566406,9.102754711914063,-9.70458984375,-8.11767578125,9.8876953125
1781501226.8050725,1.3563152404785155,-4.744110589599609,9.087192401123046,-9.27734375,-7.2021484375,9.033203125
1781501226.8090725,1.35990654296875,-4.821922143554687,9.074024291992187,-8.97216796875,-6.103515625,8.6669921875
1781501226.8130724,1.37906015625,-4.862623571777344,9.074024291992187,-8.72802734375,-4.82177734375,8.056640625
1781501226.8170724,1.3934253662109375,-4.838681555175781,9.044096771240234,-8.48388671875,-3.41796875,7.26318359375
1781501226.8210723,1.3838485595703125,-4.818330841064453,9.068038787841797,-8.1787109375,-1.953125,6.53076171875
1781501226.8250723,1.399410870361328,-4.8123453369140625,9.04050546875,-7.8125,-0.6103515625,5.9814453125
1781501226.8290722,1.3742717529296875,-4.780023614501953,9.024943157958983,-7.50732421875,0.91552734375,5.7373046875
1781501226.8330722,1.3838485595703125,-4.76924970703125,9.022548956298827,-6.89697265625,2.197265625,5.615234375
1781501226.8370721,1.350329736328125,-4.76924970703125,9.00818374633789,-6.8359375,3.72314453125,5.2490234375
1781501226.841072,1.3204022155761719,-4.732139581298828,9.005789544677734,-6.40869140625,4.7607421875,5.126953125
1781501226.845072,1.2701239807128906,-4.695029455566406,9.018957653808593,-6.16455078125,6.16455078125,4.8828125
1781501226.849072,1.265335577392578,-4.655525128173828,9.045293872070312,-5.615234375,6.9580078125,5.18798828125
1781501226.853072,1.1982979309082031,-4.61602080078125,9.105148913574219,-5.18798828125,7.26318359375,5.37109375
1781501226.8570719,1.1336544860839843,-4.535815045166015,9.188945971679686,-4.82177734375,7.75146484375,5.55419921875
1781501226.8610718,1.1085153686523437,-4.510675927734375,9.23802710571289,-4.45556640625,7.26318359375,5.92041015625
1781501226.8650718,1.0594342346191405,-4.486733911132812,9.279925634765624,-4.150390625,6.7138671875,6.16455078125
1781501226.8690717,1.0390835205078124,-4.493916516113281,9.303867651367186,-3.5400390625,5.55419921875,6.34765625
1781501226.8730717,1.016338604736328,-4.499902020263671,9.325415466308593,-3.2958984375,4.33349609375,6.16455078125
1781501226.8770716,0.978031378173828,-4.496310717773437,9.361328491210937,-3.11279296875,3.72314453125,6.04248046875
1781501226.8810716,0.949300958251953,-4.564545465087891,9.323021264648437,-3.47900390625,3.41796875,5.615234375
1781501226.8850715,0.9169792358398436,-4.6351744140625,9.252392315673827,-3.2958984375,3.60107421875,4.57763671875
1781501226.8890715,0.8954314208984374,-4.642357019042969,9.19971987915039,-3.173828125,4.57763671875,3.84521484375
1781501226.8930714,0.9373299499511718,-4.677072943115234,9.094375006103515,-2.50244140625,4.7607421875,3.11279296875
1781501226.8970714,0.9504980590820312,-4.707000463867187,9.056067779541015,-1.77001953125,4.638671875,2.5634765625
1781501226.9010713,0.967257470703125,-4.709394665527343,9.039308367919922,-0.9765625,3.84521484375,1.8310546875
1781501226.9050713,0.9971849914550781,-4.717774371337891,9.066841687011719,-0.79345703125,2.74658203125,1.3427734375
1781501226.9090712,0.9576806640625,-4.724956976318359,8.985438830566405,-0.06103515625,1.3427734375,1.0986328125
1781501226.9130712,0.8511386901855468,-4.6998178588867185,8.953117108154297,0.732421875,0.9765625,0.18310546875
1781501226.917071,0.7852981445312499,-4.6998178588867185,8.914809881591797,1.3427734375,0.79345703125,-0.54931640625
1781501226.921071,0.719457598876953,-4.710591766357422,8.859743243408202,1.46484375,1.46484375,-1.15966796875
1781501226.925071,0.6787561706542968,-4.69263525390625,8.82263311767578,1.46484375,1.64794921875,-1.8310546875
1781501226.929071,0.7302315063476562,-4.608838195800781,8.819041815185546,1.8310546875,1.708984375,-2.3193359375
1781501226.933071,0.7733271362304687,-4.570530969238281,8.86094034423828,2.01416015625,1.28173828125,-2.8076171875
1781501226.9370708,0.7888894470214843,-4.545391851806641,8.90643017578125,2.3193359375,0.91552734375,-2.99072265625
1781501226.9410708,0.7852981445312499,-4.523844036865234,8.91840118408203,2.197265625,0.42724609375,-2.9296875
1781501226.9450707,0.7876923461914062,-4.473565802001953,8.932766394042968,2.50244140625,0.3662109375,-2.86865234375
1781501226.9490707,0.7326257080078125,-4.46279189453125,8.901641772460938,2.9296875,0.30517578125,-2.9296875
1781501226.9530706,0.7338228088378905,-4.384980340576171,8.842983831787109,2.86865234375,0.3662109375,-3.0517578125
1781501226.9570706,0.7218518005371093,-4.356249920654297,8.815450512695312,3.23486328125,0.54931640625,-3.11279296875
1781501226.9610705,0.729034405517578,-4.3239281982421875,8.80946500854492,3.2958984375,0.8544921875,-2.99072265625
1781501226.9650705,0.7912836486816406,-4.316745593261719,8.872911352539061,3.2958984375,0.3662109375,-2.50244140625
1781501226.9690704,0.8678981018066406,-4.290409374999999,8.996212738037109,3.2958984375,-0.1220703125,-1.953125
1781501226.9730704,0.9301473449707031,-4.298789080810547,9.100360510253905,2.99072265625,-1.52587890625,-1.03759765625
1781501226.9770703,0.9732429748535155,-4.234145635986328,9.143456140136719,2.62451171875,-3.173828125,-0.3662109375
1781501226.9810703,0.958877764892578,-4.21978042602539,9.13028803100586,2.62451171875,-4.08935546875,0.48828125
1781501226.9850702,0.9409212524414062,-4.186261602783203,9.052476477050782,2.9296875,-4.638671875,0.9765625
1781501226.9890702,0.9469067565917968,-4.165910888671875,9.014169250488282,3.41796875,-5.06591796875,1.28173828125
1781501226.9930701,0.939724151611328,-4.2137949218749995,8.98304462890625,3.5400390625,-5.4931640625,1.8310546875
1781501226.99707,1.0043675964355467,-4.256890551757812,9.016563452148437,4.0283203125,-6.40869140625,2.25830078125
1781501227.00107,1.0606313354492187,-4.331110803222656,9.028534460449219,4.45556640625,-6.8359375,2.685546875
1781501227.00507,1.13006318359375,-4.355052819824219,9.035717065429687,5.0048828125,-7.9345703125,3.0517578125
1781501227.00907,1.1420341918945311,-4.352658618164062,9.01536635131836,5.37109375,-8.9111328125,3.173828125
1781501227.0130699,1.1145008728027344,-4.414907861328125,8.980650427246093,6.103515625,-9.6435546875,3.2958984375
1781501227.0170698,1.120486376953125,-4.401739752197265,8.936357696533202,6.53076171875,-9.8876953125,3.35693359375
1781501227.0210698,1.083376251220703,-4.3622354248046875,8.894459167480468,7.01904296875,-9.58251953125,3.23486328125
1781501227.0250697,1.0977414611816405,-4.364629626464843,8.834604125976561,6.89697265625,-8.97216796875,2.9296875
1781501227.0290697,1.0917559570312498,-4.321533996582031,8.808267907714843,7.32421875,-8.48388671875,2.38037109375
1781501227.0330696,1.0797849487304687,-4.304774584960938,8.750807067871094,7.6904296875,-8.23974609375,1.64794921875
1781501227.0370696,1.0941501586914062,-4.259284753417968,8.768763580322265,7.568359375,-7.9345703125,1.220703125
1781501227.0410695,1.1192892761230469,-4.271255761718749,8.756792572021483,7.568359375,-7.568359375,0.54931640625
1781501227.0450695,1.1468225952148436,-4.2700586608886715,8.75320126953125,7.32421875,-7.38525390625,-0.42724609375
1781501227.0490694,1.1731588134765625,-4.283226770019531,8.779537487792968,6.9580078125,-6.53076171875,-1.28173828125
1781501227.0530694,1.1935095275878906,-4.301183282470703,8.815450512695312,6.34765625,-5.43212890625,-1.89208984375
1781501227.0570693,1.2054805358886718,-4.260481854248047,8.795099798583983,5.43212890625,-4.2724609375,-2.50244140625
1781501227.0610693,1.2437877624511717,-4.223371728515625,8.804676605224609,4.33349609375,-2.86865234375,-3.173828125
1781501227.0650692,1.2904746948242187,-4.185064501953125,8.833407025146483,3.173828125,-1.77001953125,-3.60107421875
1781501227.0690691,1.3431471313476562,-4.12401235961914,8.913612780761719,2.01416015625,-0.732421875,-3.90625
1781501227.073069,1.419761584472656,-4.042609503173828,9.004592443847656,0.732421875,0.18310546875,-3.7841796875
1781501227.077069,1.466448516845703,-4.036623999023437,9.107543115234375,-0.244140625,0.8544921875,-3.72314453125
1781501227.081069,1.4724340209960938,-3.9659950500488277,9.10993731689453,-1.52587890625,1.40380859375,-3.84521484375
1781501227.085069,1.467645617675781,-3.9839515624999997,9.095572106933593,-2.3193359375,1.953125,-3.662109375
1781501227.089069,1.4532804077148436,-3.9085342102050777,9.068038787841797,-2.99072265625,3.173828125,-3.47900390625
1781501227.0930688,1.5298948608398437,-3.825934252929687,8.985438830566405,-3.5400390625,4.0283203125,-3.0517578125
1781501227.0970688,1.4508862060546874,-3.912125512695312,8.936357696533202,-4.21142578125,5.31005859375,-3.2958984375
1781501227.1010687,1.4999673400878906,-3.9528269409179684,8.875305554199219,-4.39453125,6.591796875,-3.23486328125
1781501227.1050687,1.5107412475585937,-4.024652990722656,8.853757739257812,-4.8828125,8.056640625,-2.99072265625
1781501227.1090686,1.4939818359375,-4.108450048828125,8.86812294921875,-4.8828125,9.27734375,-2.9296875
1781501227.1130686,1.5155296508789062,-4.11802685546875,8.908824377441405,-5.18798828125,10.009765625,-2.74658203125
1781501227.1170685,1.5418658691406248,-4.1766847961425775,8.96269391479492,-5.43212890625,11.29150390625,-3.11279296875
1781501227.1210685,1.5167267517089842,-4.149151477050781,9.004592443847656,-5.55419921875,11.962890625,-2.86865234375
1781501227.1250684,1.4963760375976562,-4.165910888671875,9.011775048828124,-5.2490234375,12.51220703125,-2.9296875
1781501227.1290684,1.4018050720214843,-4.188655804443359,8.972270721435546,-4.7607421875,13.24462890625,-2.50244140625
1781501227.1330683,1.4053963745117186,-4.225765930175781,8.907627276611327,-5.06591796875,13.671875,-2.5634765625
1781501227.1370683,1.3623007446289062,-4.284423870849609,8.850166436767578,-4.08935546875,14.09912109375,-2.74658203125
1781501227.1410682,1.2689268798828124,-4.314351391601562,8.815450512695312,-3.662109375,14.6484375,-2.99072265625
1781501227.1450682,1.2138602416992186,-4.319139794921875,8.798691101074219,-3.35693359375,15.07568359375,-2.99072265625
1781501227.149068,1.1719617126464843,-4.338293408203125,8.845378033447265,-2.74658203125,15.625,-3.11279296875
1781501227.153068,1.1468225952148436,-4.313154290771484,8.920795385742187,-2.8076171875,15.7470703125,-3.0517578125
1781501227.157068,1.1575965026855468,-4.328716601562499,9.032125762939453,-2.86865234375,15.869140625,-2.8076171875
1781501227.161068,1.13006318359375,-4.3071687866210935,9.063250384521483,-3.47900390625,16.2353515625,-2.9296875
1781501227.165068,1.121683477783203,-4.2880151733398435,9.07163009033203,-3.7841796875,16.4794921875,-2.50244140625
1781501227.1690679,1.0881646545410155,-4.2892122741699215,9.02135185546875,-4.2724609375,17.27294921875,-2.01416015625
1781501227.1730678,0.9935936889648437,-4.285620971679688,8.950722906494141,-4.69970703125,17.88330078125,-1.64794921875
1781501227.1770678,0.958877764892578,-4.317942694091797,8.88607946166992,-4.69970703125,18.24951171875,-1.28173828125
1781501227.1810677,0.8918401184082031,-4.264073156738281,8.870517150878905,-4.57763671875,18.798828125,-0.732421875
1781501227.1850677,0.8571241943359375,-4.253299249267578,8.88009395751953,-4.45556640625,19.04296875,-0.42724609375
1781501227.1890676,0.8116343627929687,-4.229357232666016,8.926780889892578,-4.150390625,18.61572265625,0.3662109375
1781501227.1930676,0.74699091796875,-4.216189123535156,8.999804040527343,-3.23486328125,17.88330078125,1.15966796875
1781501227.1970675,0.7326257080078125,-4.236539837646484,9.01536635131836,-2.74658203125,16.66259765625,1.8310546875
1781501227.2010674,0.7206546997070312,-4.234145635986328,9.089586602783202,-2.197265625,15.2587890625,2.62451171875
1781501227.2050674,0.6260837341308594,-4.224568829345703,9.077615594482422,-1.28173828125,13.73291015625,3.47900390625
1781501227.2090673,0.5722141967773438,-4.229357232666016,9.074024291992187,-0.3662109375,11.962890625,4.33349609375
1781501227.2130673,0.5087678527832031,-4.225765930175781,9.057264880371093,0.732421875,10.19287109375,4.94384765625
1781501227.2170672,0.44412440795898434,-4.183867401123047,9.042899670410156,1.77001953125,8.72802734375,5.55419921875
1781501227.2210672,0.4477157104492187,-4.171896392822266,9.056067779541015,3.11279296875,6.77490234375,6.53076171875
1781501227.2250671,0.4082113830566406,-4.16231958618164,9.095572106933593,4.45556640625,4.2724609375,7.26318359375
1781501227.229067,0.3962403747558593,-4.187458703613281,9.125499627685546,5.4931640625,1.3427734375,7.99560546875
1781501227.233067,0.3711012573242187,-4.20062681274414,9.18056626586914,6.16455078125,-1.220703125,8.72802734375
1781501227.237067,0.373495458984375,-4.220977526855468,9.233238702392578,6.9580078125,-4.0283203125,9.46044921875
1781501227.241067,0.35314474487304687,-4.235342736816406,9.260772021484375,7.2021484375,-6.89697265625,9.765625
1781501227.245067,0.34715924072265625,-4.247313745117188,9.236830004882812,7.6904296875,-9.1552734375,10.07080078125
1781501227.2490668,0.36152445068359373,-4.322731097412109,9.159018450927734,7.87353515625,-11.3525390625,10.07080078125
1781501227.2530668,0.354341845703125,-4.3454760131835934,9.111134417724609,7.62939453125,-12.75634765625,9.765625
1781501227.2570667,0.39264907226562495,-4.422090466308593,9.066841687011719,8.11767578125,-13.85498046875,9.6435546875
1781501227.2610667,0.4070142822265625,-4.469974499511719,8.997409838867187,7.75146484375,-15.2587890625,9.033203125
1781501227.2650666,0.4560954162597656,-4.502296221923828,8.973467822265624,7.9345703125,-16.2353515625,8.85009765625
1781501227.2690666,0.4572925170898437,-4.533420843505859,8.971073620605468,7.9345703125,-16.78466796875,8.30078125
1781501227.2730665,0.4896142395019531,-4.531026641845703,8.94473740234375,8.23974609375,-17.4560546875,7.50732421875
1781501227.2770665,0.5267243652343749,-4.576516473388671,8.917204083251953,8.544921875,-17.578125,6.65283203125
1781501227.2810664,0.5518634826660156,-4.618415002441406,8.901641772460938,9.1552734375,-17.63916015625,6.103515625
1781501227.2850664,0.5961562133789062,-4.657919329833984,8.845378033447265,9.3994140625,-17.333984375,5.4931640625
1781501227.2890663,0.6452373474121094,-4.673481640625,8.810662109374999,10.3759765625,-17.02880859375,4.8828125
1781501227.2930663,0.6859387756347656,-4.710591766357422,8.799888201904297,10.68115234375,-16.6015625,4.33349609375
1781501227.2970662,0.7601590270996094,-4.666299035644531,8.817844714355468,11.474609375,-16.29638671875,4.0283203125
1781501227.3010662,0.8176198669433593,-4.666299035644531,8.876502655029297,12.3291015625,-16.05224609375,3.72314453125
1781501227.305066,0.8403647827148437,-4.65432802734375,8.910021478271483,13.0615234375,-15.93017578125,3.5400390625
1781501227.309066,0.8571241943359375,-4.592078784179687,8.936357696533202,13.73291015625,-15.93017578125,3.60107421875
1781501227.313066,0.8894459167480468,-4.542997650146484,8.894459167480468,14.95361328125,-15.80810546875,3.84521484375
1781501227.317066,0.9097966308593749,-4.495113616943359,8.894459167480468,15.2587890625,-15.625,4.150390625
1781501227.321066,0.9325415466308593,-4.440046978759765,8.86812294921875,15.93017578125,-15.380859375,4.57763671875
1781501227.3250659,0.9600748657226562,-4.377797735595703,8.85495484008789,16.845703125,-14.95361328125,4.82177734375
1781501227.3290658,0.9504980590820312,-4.321533996582031,8.853757739257812,17.27294921875,-14.46533203125,5.18798828125
1781501227.3330657,1.0115502014160156,-4.33470210571289,8.870517150878905,17.51708984375,-14.46533203125,5.92041015625
1781501227.3370657,1.0330980163574217,-4.27724126586914,8.920795385742187,17.822265625,-13.671875,6.34765625
1781501227.3410656,1.092953057861328,-4.253299249267578,8.921992486572265,17.76123046875,-13.48876953125,7.080078125
1781501227.3450656,1.1049240661621094,-4.2521021484374995,8.9255837890625,17.63916015625,-13.18359375,7.38525390625
1781501227.3490655,1.0953472595214844,-4.2305543334960936,8.916006982421875,17.88330078125,-12.87841796875,7.87353515625
1781501227.3530655,1.1085153686523437,-4.23893403930664,8.88607946166992,17.578125,-12.5732421875,8.23974609375
1781501227.3570654,1.092953057861328,-4.204218115234375,8.852560638427734,17.333984375,-12.02392578125,8.85009765625
1781501227.3610654,1.083376251220703,-4.149151477050781,8.828618621826172,16.90673828125,-11.3525390625,8.9111328125
1781501227.3650653,1.0534487304687499,-4.140771771240234,8.78432589111328,16.7236328125,-10.19287109375,9.33837890625
1781501227.3690653,1.0187328063964842,-4.127603662109375,8.735244757080078,16.41845703125,-9.27734375,9.27734375
1781501227.3730652,1.0139444030761717,-4.107252947998047,8.696937530517578,15.93017578125,-7.87353515625,9.58251953125
1781501227.3770652,0.9983820922851562,-4.077325427246094,8.730456353759765,15.2587890625,-6.7138671875,9.46044921875
1781501227.3810651,1.0043675964355467,-4.052186309814453,8.752004168701172,14.58740234375,-5.67626953125,9.82666015625
1781501227.385065,0.9923965881347656,-4.011484881591796,8.783128790283202,13.85498046875,-4.45556640625,10.1318359375
1781501227.389065,1.0390835205078124,-3.9755718566894527,8.82383021850586,12.8173828125,-3.41796875,10.31494140625
1781501227.393065,1.0342951171875,-3.958812445068359,8.840589630126953,12.20703125,-2.62451171875,10.7421875
1781501227.397065,1.0390835205078124,-3.949235638427734,8.863334545898438,11.3525390625,-2.38037109375,11.3525390625
1781501227.4010649,1.0319009155273438,-3.9240965209960934,8.857349041748046,10.07080078125,-1.64794921875,11.77978515625
1781501227.4050648,1.0366893188476562,-3.919308117675781,8.865728747558594,9.033203125,-1.46484375,12.51220703125
1781501227.4090648,1.0414777221679687,-3.919308117675781,8.881291058349609,8.056640625,-1.0986328125,12.8173828125
1781501227.4130647,1.0127473022460938,-3.892971899414062,8.9255837890625,7.080078125,-1.3427734375,13.427734375
1781501227.4170647,1.005564697265625,-3.896563201904297,8.935160595703124,6.16455078125,-1.40380859375,13.73291015625
1781501227.4210646,0.9792284790039062,-3.8798037902832028,8.971073620605468,5.43212890625,-1.64794921875,14.22119140625
1781501227.4250646,0.967257470703125,-3.8953661010742184,8.975862023925782,4.69970703125,-2.13623046875,14.46533203125
1781501227.4290645,0.9121908325195311,-3.9456443359374997,9.003395343017578,4.08935546875,-3.11279296875,14.7705078125
1781501227.4330645,0.9062053283691406,-3.9636008483886718,8.987833032226561,3.11279296875,-3.60107421875,14.404296875
1781501227.4370644,0.8942343200683593,-4.04739790649414,8.973467822265624,2.44140625,-4.21142578125,14.46533203125
1781501227.4410644,0.8678981018066406,-4.149151477050781,8.973467822265624,2.197265625,-4.7607421875,14.34326171875
1781501227.4450643,0.8283937744140625,-4.206612316894531,8.963891015625,1.89208984375,-5.126953125,13.73291015625
1781501227.4490643,0.7841010437011718,-4.29639487915039,8.950722906494141,1.52587890625,-5.55419921875,13.18359375
1781501227.4530642,0.7888894470214843,-4.301183282470703,8.935160595703124,1.64794921875,-6.2255859375,12.5732421875
1781501227.4570642,0.7841010437011718,-4.294000677490234,8.933963494873046,1.89208984375,-6.591796875,12.02392578125
1781501227.461064,0.824802471923828,-4.297591979980469,8.947131604003905,2.3193359375,-7.4462890625,11.3525390625
1781501227.465064,0.8200140686035156,-4.299986181640625,8.943540301513671,2.99072265625,-8.1787109375,10.7421875
1781501227.469064,0.8667010009765624,-4.279635467529297,8.951920007324219,3.662109375,-8.9111328125,10.25390625
1781501227.473064,0.9097966308593749,-4.228160131835938,8.959102612304687,4.39453125,-9.46044921875,9.46044921875
1781501227.477064,0.9504980590820312,-4.220977526855468,8.971073620605468,4.94384765625,-9.8876953125,9.1552734375
1781501227.4810638,1.0366893188476562,-4.158728283691406,9.009380847167968,5.43212890625,-10.1318359375,9.033203125
1781501227.4850638,1.0594342346191405,-4.164713787841797,9.014169250488282,6.53076171875,-10.6201171875,8.6669921875
1781501227.4890637,1.0702081420898437,-4.152742779541016,9.010577947998046,6.7138671875,-11.23046875,8.544921875
1781501227.4930637,1.1073182678222655,-4.131194964599609,9.026140258789061,7.080078125,-11.5966796875,8.6669921875
1781501227.4970636,1.1168950744628905,-4.109647149658203,9.005789544677734,7.50732421875,-12.20703125,8.4228515625
1781501227.5010636,1.1456254943847655,-4.100070343017578,8.993818536376953,7.99560546875,-12.87841796875,8.23974609375
1781501227.5050635,1.1671733093261718,-4.059368914794922,8.986635931396483,7.99560546875,-13.73291015625,8.11767578125
1781501227.5090635,1.121683477783203,-4.018667486572266,8.973467822265624,8.11767578125,-13.97705078125,7.9345703125
1781501227.5130634,1.1276689819335937,-3.9935283691406247,8.93156929321289,8.11767578125,-14.404296875,7.99560546875
1781501227.5170634,1.13006318359375,-3.9887399658203124,8.94473740234375,8.056640625,-14.7705078125,7.4462890625
1781501227.5210633,1.1671733093261718,-3.977966058349609,9.00818374633789,7.568359375,-14.892578125,7.32421875
1781501227.5250633,1.1935095275878906,-3.9468414367675777,9.020154754638671,7.080078125,-15.2587890625,6.7138671875
1781501227.5290632,1.2677297790527342,-3.900154504394531,9.04050546875,6.7138671875,-15.31982421875,6.8359375
1781501227.5330632,1.2677297790527342,-3.860650177001953,9.042899670410156,5.9814453125,-15.19775390625,6.28662109375
1781501227.5370631,1.2797007873535156,-3.815160345458984,9.005789544677734,5.55419921875,-15.19775390625,6.40869140625
1781501227.541063,1.351526837158203,-3.803189337158203,8.953117108154297,5.18798828125,-14.22119140625,5.92041015625
1781501227.545063,1.3946224670410154,-3.8187516479492185,8.87410845336914,4.45556640625,-13.24462890625,5.43212890625
1781501227.549063,1.407790576171875,-3.834313958740234,8.815450512695312,4.39453125,-12.39013671875,5.18798828125
1781501227.553063,1.426944189453125,-3.824737152099609,8.75918677368164,4.2724609375,-11.1083984375,5.43212890625
1781501227.5570629,1.4532804077148436,-3.833116857910156,8.725667950439453,4.45556640625,-9.6435546875,5.31005859375
1781501227.5610628,1.4903905334472656,-3.831919757080078,8.729259252929687,4.7607421875,-8.544921875,5.31005859375
1781501227.5650628,1.4987702392578124,-3.8379052612304685,8.726865051269531,4.69970703125,-7.32421875,5.37109375
1781501227.5690627,1.5167267517089842,-3.834313958740234,8.73285055541992,4.39453125,-6.2255859375,5.7373046875
1781501227.5730627,1.5191209533691405,-3.8391023620605464,8.77115778198242,4.57763671875,-5.31005859375,5.9814453125
1781501227.5770626,1.5083470458984374,-3.84987626953125,8.781931689453124,4.2724609375,-4.39453125,6.4697265625
1781501227.5810626,1.4784195251464842,-3.8271313537597655,8.828618621826172,4.45556640625,-3.90625,6.77490234375
1781501227.5850625,1.467645617675781,-3.8091748413085935,8.871714251708983,3.90625,-2.99072265625,7.4462890625
1781501227.5890625,1.4592659118652342,-3.8391023620605464,8.920795385742187,3.90625,-3.35693359375,7.8125
1781501227.5930624,1.4113818786621093,-3.834313958740234,8.96987651977539,3.662109375,-3.2958984375,8.30078125
1781501227.5970623,1.3718775512695311,-3.806780639648437,8.98304462890625,3.84521484375,-3.35693359375,8.9111328125
1781501227.6010623,1.3383587280273437,-3.8187516479492185,8.996212738037109,3.84521484375,-4.08935546875,9.033203125
1781501227.6050622,1.3275848205566405,-3.787627026367187,9.032125762939453,4.08935546875,-4.638671875,9.46044921875
1781501227.6090622,1.3060370056152344,-3.81156904296875,9.041702569580078,4.33349609375,-5.615234375,9.27734375
1781501227.6130621,1.2928688964843749,-3.785232824707031,9.070432989501953,4.33349609375,-6.4697265625,9.33837890625
1781501227.617062,1.2378022583007813,-3.83072265625,9.087192401123046,4.39453125,-7.4462890625,9.46044921875
1781501227.621062,1.2569558715820313,-3.821145849609375,9.124302526855468,3.96728515625,-8.4228515625,9.033203125
1781501227.625062,1.2473790649414063,-3.852270471191406,9.126696728515624,3.90625,-9.3994140625,8.72802734375
1781501227.629062,1.2677297790527342,-3.877409588623047,9.12310542602539,3.5400390625,-10.19287109375,8.544921875
1781501227.633062,1.3060370056152344,-3.909731311035156,9.115922821044922,3.47900390625,-10.92529296875,7.87353515625
1781501227.6370618,1.291671795654297,-3.967192150878906,9.082403997802734,3.0517578125,-11.3525390625,7.50732421875
1781501227.6410618,1.294065997314453,-3.9695863525390624,9.04050546875,2.9296875,-11.65771484375,6.65283203125
1781501227.6450617,1.284489190673828,-3.976768957519531,8.98304462890625,2.9296875,-11.5966796875,6.04248046875
1781501227.6490617,1.2820949890136717,-3.9983167724609374,8.936357696533202,2.74658203125,-11.5966796875,5.126953125
1781501227.6530616,1.2976572998046874,-3.9731776550292968,8.894459167480468,3.23486328125,-11.65771484375,4.638671875
1781501227.6570616,1.2868833923339842,-3.9707834533691404,8.866925848388671,3.23486328125,-11.65771484375,3.60107421875
1781501227.6610615,1.2713210815429687,-3.948038537597656,8.85495484008789,3.60107421875,-11.23046875,3.0517578125
1781501227.6650615,1.3347674255371094,-3.901351605224609,8.8489693359375,3.72314453125,-11.1083984375,2.50244140625
1781501227.6690614,1.350329736328125,-3.8798037902832028,8.87410845336914,3.72314453125,-10.8642578125,2.01416015625
1781501227.6730614,1.3922282653808593,-3.8582559753417964,8.8872765625,3.7841796875,-10.6201171875,1.64794921875
1781501227.6770613,1.4006079711914061,-3.8295255554199215,8.930372192382812,3.47900390625,-10.3759765625,1.3427734375
1781501227.6810613,1.4472949035644531,-3.786429925537109,8.957905511474609,3.173828125,-9.94873046875,1.52587890625
1781501227.6850612,1.467645617675781,-3.7900212280273435,8.967482318115234,2.9296875,-9.8876953125,1.46484375
1781501227.6890612,1.4927847351074217,-3.797203833007812,8.980650427246093,2.25830078125,-9.46044921875,1.64794921875
1781501227.693061,1.4999673400878906,-3.749319799804687,9.051279376220702,1.953125,-9.21630859375,1.8310546875
1781501227.697061,1.5179238525390624,-3.726574884033203,9.0788126953125,1.46484375,-8.72802734375,2.197265625
1781501227.701061,1.5490484741210937,-3.73495458984375,9.076418493652342,1.03759765625,-8.48388671875,2.44140625
1781501227.705061,1.5370774658203123,-3.758896606445312,9.094375006103515,0.732421875,-8.48388671875,3.0517578125
1781501227.709061,1.5574281799316405,-3.797203833007812,9.106346014404297,0.244140625,-7.99560546875,3.173828125
1781501227.7130609,1.5885528015136718,-3.797203833007812,9.121908325195312,0.244140625,-7.99560546875,3.60107421875
1781501227.7170608,1.618480322265625,-3.784035723876953,9.10993731689453,0.06103515625,-7.50732421875,3.90625
1781501227.7210608,1.5801730957031248,-3.8558617736816405,9.14824454345703,-0.1220703125,-7.14111328125,4.33349609375
1781501227.7250607,1.5598223815917969,-3.845087866210937,9.139864837646483,0.18310546875,-6.7138671875,4.69970703125
1781501227.7290606,1.562216583251953,-3.864241479492187,9.124302526855468,-0.48828125,-6.103515625,4.7607421875
1781501227.7330606,1.5071499450683592,-3.909731311035156,9.102754711914063,-0.06103515625,-5.615234375,5.0048828125
1781501227.7370605,1.456871710205078,-3.822342950439453,9.042899670410156,0.244140625,-4.7607421875,4.7607421875
1781501227.7410605,1.4401122985839843,-3.852270471191406,8.971073620605468,0.48828125,-3.60107421875,4.57763671875
1781501227.7450604,1.4233528869628906,-3.843890765380859,8.948328704833983,0.67138671875,-2.74658203125,4.33349609375
1781501227.7490604,1.4353238952636718,-3.83072265625,8.917204083251953,1.15966796875,-1.8310546875,4.39453125
1781501227.7530603,1.4053963745117186,-3.864241479492187,8.911218579101561,1.40380859375,-0.79345703125,4.57763671875
1781501227.7570603,1.47482822265625,-3.842693664550781,8.93875189819336,1.3427734375,-0.06103515625,4.5166015625
1781501227.7610602,1.4257470886230468,-3.8103719421386715,8.979453326416015,1.3427734375,0.48828125,4.7607421875
1781501227.7650602,1.438915197753906,-3.7481226989746093,9.02733735961914,1.15966796875,1.0986328125,4.8828125
1781501227.7690601,1.4472949035644531,-3.7193922790527343,9.045293872070312,1.0986328125,1.46484375,5.37109375
1781501227.77306,1.43652099609375,-3.736151690673828,9.09198080444336,0.732421875,1.40380859375,5.7373046875
1781501227.77706,1.408987677001953,-3.687070556640625,9.147047442626953,0.06103515625,1.5869140625,6.2255859375
1781501227.78106,1.407790576171875,-3.6679169433593746,9.179369165039063,0.0,1.5869140625,6.65283203125
1781501227.78506,1.4209586853027343,-3.6535517333984373,9.212887988281249,-0.67138671875,1.5869140625,7.32421875
1781501227.7890599,1.389834063720703,-3.6679169433593746,9.247603912353515,-1.0986328125,1.220703125,7.87353515625
1781501227.7930598,1.4006079711914061,-3.6439749267578123,9.228450299072264,-1.40380859375,1.03759765625,8.30078125
1781501227.7970598,1.4006079711914061,-3.6439749267578123,9.228450299072264,-1.40380859375,1.03759765625,8.30078125
1781501227.8010597,1.3874398620605468,-3.6547488342285153,9.220070593261719,-1.5869140625,1.03759765625,8.85009765625
1781501227.8050597,1.3634978454589843,-3.67749375,9.208099584960937,-1.77001953125,0.3662109375,9.46044921875
1781501227.8090596,1.380257257080078,-3.7205893798828122,9.212887988281249,-1.708984375,-0.244140625,9.8876953125
1781501227.8130596,1.3754688537597655,-3.7397429931640622,9.20690248413086,-1.708984375,-0.67138671875,10.3759765625
1781501227.8170595,1.399410870361328,-3.754108203125,9.214085089111327,-1.52587890625,-1.46484375,10.80322265625
1781501227.8210595,1.3778630554199218,-3.7696705139160156,9.22485899658203,-1.0986328125,-2.01416015625,11.04736328125
1781501227.8250594,1.3551181396484375,-3.7995980346679685,9.18056626586914,-1.3427734375,-2.62451171875,11.53564453125
1781501227.8290594,1.3539210388183593,-3.825934252929687,9.157821350097656,-1.3427734375,-2.685546875,11.71875
1781501227.8330593,1.3491326354980469,-3.867832781982422,9.124302526855468,-1.28173828125,-2.50244140625,11.65771484375
1781501227.8370593,1.3634978454589843,-3.9049429077148434,9.117119921875,-1.03759765625,-2.44140625,11.5966796875
1781501227.8410592,1.3658920471191405,-3.9169139160156248,9.094375006103515,-1.0986328125,-2.3193359375,11.41357421875
1781501227.8450592,1.361103643798828,-3.9504327392578125,9.066841687011719,-1.03759765625,-1.89208984375,11.474609375
1781501227.849059,1.332373223876953,-3.9552211425781247,9.048885174560546,-1.03759765625,-1.953125,11.29150390625
1781501227.853059,1.313219610595703,-3.949235638427734,9.051279376220702,-0.67138671875,-1.5869140625,11.1083984375
1781501227.857059,1.3239935180664062,-3.9420530334472654,9.020154754638671,-0.6103515625,-1.15966796875,10.6201171875
1781501227.861059,1.313219610595703,-3.9647979492187497,9.052476477050782,-0.30517578125,-0.67138671875,10.009765625
1781501227.865059,1.3239935180664062,-3.9468414367675777,9.063250384521483,0.06103515625,-0.3662109375,9.8876953125
1781501227.8690588,1.3287819213867187,-3.9923312683105467,9.093177905273437,0.244140625,-0.3662109375,9.521484375
1781501227.8730588,1.3048399047851562,-3.9755718566894527,9.100360510253905,0.54931640625,0.0,9.033203125
1781501227.8770587,1.3144167114257812,-3.997119671630859,9.113528619384764,0.79345703125,0.0,8.544921875
1781501227.8810587,1.2904746948242187,-3.987542864990234,9.124302526855468,1.3427734375,-0.244140625,8.36181640625
1781501227.8850586,1.2928688964843749,-3.987542864990234,9.118317022705078,1.64794921875,-0.30517578125,7.8125
1781501227.8890586,1.2425906616210938,-3.976768957519531,9.076418493652342,2.197265625,-0.54931640625,7.26318359375
1781501227.8930585,1.24498486328125,-3.976768957519531,9.075221392822264,2.197265625,-0.6103515625,6.7138671875
1781501227.8970585,1.1911153259277343,-4.011484881591796,9.075221392822264,3.2958984375,-0.91552734375,6.103515625
1781501227.9010584,1.159990704345703,-4.013879083251953,9.09198080444336,3.5400390625,-1.52587890625,5.37109375
1781501227.9050584,1.1468225952148436,-3.9743747558593747,9.077615594482422,4.21142578125,-1.52587890625,4.69970703125
1781501227.9090583,1.1240776794433593,-3.949235638427734,9.095572106933593,4.2724609375,-2.197265625,4.2724609375
1781501227.9130583,1.1635820068359375,-3.9169139160156248,9.125499627685546,4.33349609375,-2.685546875,3.47900390625
1781501227.9170582,1.1540052001953125,-3.8989574035644528,9.126696728515624,4.5166015625,-2.99072265625,3.11279296875
1781501227.9210582,1.159990704345703,-3.825934252929687,9.159018450927734,4.150390625,-3.662109375,2.8076171875
1781501227.9250581,1.1863269226074218,-3.7792473205566406,9.194931475830078,4.0283203125,-4.2724609375,2.86865234375
1781501227.929058,1.2174515441894531,-3.7672763122558592,9.222464794921875,3.173828125,-5.0048828125,2.685546875
1781501227.933058,1.265335577392578,-3.73495458984375,9.242815509033203,2.74658203125,-5.126953125,2.9296875
1781501227.937058,1.3000515014648437,-3.754108203125,9.273940130615234,2.50244140625,-5.79833984375,3.0517578125
1781501227.941058,1.3623007446289062,-3.745728497314453,9.176974963378905,2.0751953125,-6.591796875,3.84521484375
1781501227.9450579,1.3623007446289062,-3.768473413085937,9.14824454345703,2.197265625,-7.080078125,4.33349609375
1781501227.9490578,1.3623007446289062,-3.768473413085937,9.14824454345703,2.197265625,-7.080078125,4.33349609375
1781501227.9530578,1.369483349609375,-3.815160345458984,9.108740216064453,2.38037109375,-7.26318359375,4.638671875
1781501227.9570577,1.3623007446289062,-3.81156904296875,9.048885174560546,2.9296875,-7.4462890625,5.2490234375
1781501227.9610577,1.3491326354980469,-3.840299462890625,9.0021982421875,3.0517578125,-7.2021484375,5.2490234375
1781501227.9650576,1.3263877197265623,-3.9037458068847655,8.971073620605468,4.0283203125,-7.14111328125,5.67626953125
1781501227.9690576,1.351526837158203,-3.8989574035644528,8.955511309814453,4.39453125,-7.01904296875,5.859375
1781501227.9730575,1.3287819213867187,-3.8953661010742184,8.923189587402343,5.06591796875,-6.8359375,5.67626953125
1781501227.9770575,1.3299790222167969,-3.8953661010742184,8.935160595703124,5.31005859375,-6.89697265625,5.615234375
1781501227.9810574,1.3263877197265623,-3.920505218505859,8.945934503173827,5.55419921875,-6.77490234375,5.4931640625
1781501227.9850574,1.274912384033203,-3.9181110168457027,8.96269391479492,5.55419921875,-6.591796875,4.82177734375
1781501227.9890573,1.2725181823730467,-3.912125512695312,8.975862023925782,5.92041015625,-6.89697265625,4.82177734375
1781501227.9930573,1.2318167541503906,-3.900154504394531,8.981847528076171,5.67626953125,-6.53076171875,4.57763671875
1781501227.9970572,1.2030863342285156,-3.886986395263672,8.981847528076171,5.7373046875,-6.591796875,3.96728515625
1781501228.0010571,1.2018892333984375,-3.853467572021484,8.979453326416015,5.55419921875,-6.34765625,3.72314453125
1781501228.005057,1.2102689392089843,-3.853467572021484,8.961496813964843,5.06591796875,-6.16455078125,3.11279296875
1781501228.009057,1.1647791076660157,-3.8079777404785156,8.979453326416015,4.69970703125,-5.859375,2.86865234375
1781501228.013057,1.1851298217773436,-3.782838623046875,8.986635931396483,4.45556640625,-5.79833984375,2.8076171875
1781501228.017057,1.2318167541503906,-3.7409400939941406,9.020154754638671,3.84521484375,-5.55419921875,2.62451171875
1781501228.021057,1.2342109558105467,-3.7158009765625,9.04649097290039,3.5400390625,-5.55419921875,2.74658203125
1781501228.0250568,1.2988544006347655,-3.689464758300781,9.107543115234375,3.23486328125,-5.2490234375,3.173828125
1781501228.0290568,1.3000515014648437,-3.670311145019531,9.09796630859375,2.685546875,-5.31005859375,3.41796875
1781501228.0330567,1.322796417236328,-3.6439749267578123,9.089586602783202,2.197265625,-5.31005859375,4.08935546875
1781501228.0370567,1.380257257080078,-3.670311145019531,9.111134417724609,2.0751953125,-5.2490234375,5.126953125
1781501228.0410566,1.4221557861328125,-3.679887951660156,9.132682232666015,2.01416015625,-5.43212890625,5.615234375
1781501228.0450566,1.4736311218261717,-3.7110125732421873,9.14824454345703,1.77001953125,-5.31005859375,6.4697265625
1781501228.0490565,1.4963760375976562,-3.6762966491699216,9.135076434326171,1.52587890625,-5.31005859375,7.50732421875
1781501228.0530565,1.5251064575195312,-3.727771984863281,9.10993731689453,1.52587890625,-5.37109375,8.23974609375
1781501228.0570564,1.4975731384277342,-3.731363287353515,9.047688073730468,1.89208984375,-4.7607421875,8.7890625
1781501228.0610564,1.4808137268066406,-3.785232824707031,9.020154754638671,2.38037109375,-4.45556640625,9.3994140625
1781501228.0650563,1.458068811035156,-3.8235400512695312,8.963891015625,2.86865234375,-3.7841796875,9.765625
1781501228.0690563,1.429338391113281,-3.872621185302734,8.95670841064453,3.41796875,-3.0517578125,9.765625
1781501228.0730562,1.4030021728515625,-3.9420530334472654,8.933963494873046,4.150390625,-2.44140625,9.6435546875
1781501228.0770562,1.3634978454589843,-3.967192150878906,8.951920007324219,4.8828125,-1.46484375,9.33837890625
1781501228.081056,1.3359645263671873,-4.00909067993164,8.989030133056641,5.2490234375,-0.9765625,9.1552734375
1781501228.085056,1.291671795654297,-4.021061688232422,8.99501563720703,6.16455078125,-0.06103515625,8.7890625
1781501228.089056,1.291671795654297,-4.036623999023437,9.038111267089842,6.65283203125,0.54931640625,8.23974609375
1781501228.093056,1.2701239807128906,-4.025850091552734,9.056067779541015,7.01904296875,0.6103515625,7.99560546875
1781501228.097056,1.2473790649414063,-3.9624037475585934,9.090783703613281,7.4462890625,1.15966796875,7.62939453125
1781501228.1010559,1.265335577392578,-3.896563201904297,9.089586602783202,7.75146484375,1.3427734375,7.50732421875
1781501228.1050558,1.2437877624511717,-3.871424084472656,9.105148913574219,8.11767578125,1.708984375,7.50732421875
1781501228.1090558,1.2342109558105467,-3.8474820678710935,9.12310542602539,7.9345703125,2.01416015625,7.6904296875
1781501228.1130557,1.2306196533203124,-3.8271313537597655,9.141061938476563,8.48388671875,2.74658203125,8.11767578125
1781501228.1170557,1.2030863342285156,-3.7696705139160156,9.113528619384764,8.60595703125,2.74658203125,8.7890625
1781501228.1210556,1.2330138549804688,-3.7804444213867185,9.106346014404297,9.033203125,2.8076171875,9.27734375
1781501228.1250556,1.2126631408691406,-3.7708676147460936,9.107543115234375,9.33837890625,2.86865234375,9.6435546875
1781501228.1290555,1.216254443359375,-3.7409400939941406,9.101557611083983,10.07080078125,3.0517578125,10.8642578125
1781501228.1330554,1.2042834350585936,-3.737348791503906,9.105148913574219,10.7421875,2.62451171875,11.65771484375
1781501228.1370554,1.227028350830078,-3.778050219726562,9.144653240966797,10.8642578125,2.3193359375,12.451171875
1781501228.1410553,1.1851298217773436,-3.7912183288574215,9.175777862548827,11.3525390625,1.77001953125,13.671875
1781501228.1450553,1.2054805358886718,-3.8007951354980465,9.210493786621093,11.65771484375,1.15966796875,14.34326171875
1781501228.1490552,1.1815385192871093,-3.8235400512695312,9.215282189941405,12.0849609375,0.54931640625,15.7470703125
1781501228.1530552,1.1324573852539062,-3.801992236328125,9.214085089111327,12.5732421875,-0.54931640625,16.54052734375
1781501228.1570551,1.1073182678222655,-3.785232824707031,9.190143072509764,12.939453125,-1.52587890625,17.27294921875
1781501228.161055,1.0953472595214844,-3.755305303955078,9.192537274169922,13.427734375,-2.62451171875,18.1884765625
1781501228.165055,1.0726023437499999,-3.7241806823730466,9.191340173339842,13.73291015625,-3.662109375,18.85986328125
1781501228.169055,1.0558429321289062,-3.7289690856933593,9.205705383300781,13.97705078125,-4.8828125,19.53125
1781501228.173055,1.0606313354492187,-3.7433342956542965,9.19971987915039,14.5263671875,-5.67626953125,20.1416015625
1781501228.177055,1.0726023437499999,-3.7576995056152342,9.214085089111327,14.892578125,-6.591796875,20.44677734375
1781501228.1810548,1.1001356628417969,-3.7481226989746093,9.210493786621093,15.2587890625,-7.14111328125,20.93505859375
1781501228.1850548,1.1348515869140625,-3.736151690673828,9.208099584960937,15.56396484375,-7.568359375,21.240234375
1781501228.1890547,1.158793603515625,-3.7576995056152342,9.209296685791015,15.80810546875,-8.23974609375,21.484375
1781501228.1930547,1.2174515441894531,-3.756502404785156,9.22485899658203,16.11328125,-8.11767578125,22.03369140625
1781501228.1970546,1.254561669921875,-3.7529111022949215,9.220070593261719,16.41845703125,-8.11767578125,22.5830078125
1781501228.2010546,1.2820949890136717,-3.7995980346679685,9.202114080810546,16.41845703125,-7.75146484375,22.705078125
1781501228.2050545,1.3359645263671873,-3.8007951354980465,9.156624249267578,16.78466796875,-7.26318359375,23.0712890625
1781501228.2090545,1.3299790222167969,-3.8283284545898435,9.126696728515624,17.578125,-6.77490234375,23.74267578125
1781501228.2130544,1.3239935180664062,-3.8367081604003905,9.075221392822264,18.24951171875,-5.92041015625,24.0478515625
1781501228.2170544,1.3335703247070312,-3.8391023620605464,9.014169250488282,19.287109375,-4.8828125,24.23095703125
1781501228.2210543,1.3299790222167969,-3.871424084472656,8.998606939697265,20.263671875,-3.7841796875,24.7802734375
1781501228.2250543,1.3180080139160155,-3.8857892944335934,8.978256225585938,21.240234375,-2.44140625,25.20751953125
1781501228.2290542,1.3072341064453123,-3.925293621826172,8.96269391479492,22.216796875,-1.46484375,25.146484375
1781501228.2330542,1.2701239807128906,-3.900154504394531,8.95670841064453,23.0712890625,0.18310546875,25.5126953125
1781501228.237054,1.246181964111328,-3.890577697753906,8.92438668823242,24.47509765625,1.64794921875,25.87890625
1781501228.241054,1.22583125,-3.8690298828125,8.910021478271483,25.32958984375,2.99072265625,26.2451171875
1781501228.245054,1.2126631408691406,-3.8283284545898435,8.933963494873046,26.55029296875,4.638671875,26.7333984375
1781501228.249054,1.2222399475097656,-3.794809631347656,8.978256225585938,27.64892578125,6.103515625,27.03857421875
1781501228.253054,1.2425906616210938,-3.774458917236328,9.029731561279297,28.4423828125,7.4462890625,27.587890625
1781501228.2570539,1.24498486328125,-3.7481226989746093,9.115922821044922,28.86962890625,8.36181640625,28.25927734375
1781501228.2610538,1.2641384765625,-3.708618371582031,9.187748870849608,29.60205078125,9.765625,28.99169921875
1781501228.2650537,1.2797007873535156,-3.6547488342285153,9.300276348876952,30.21240234375,10.6201171875,29.72412109375
1781501228.2690537,1.3395558288574219,-3.6092590026855467,9.42956323852539,30.8837890625,11.53564453125,30.94482421875
1781501228.2730536,1.3838485595703125,-3.574543078613281,9.5001921875,31.3720703125,12.02392578125,31.92138671875
1781501228.2770536,1.399410870361328,-3.5338416503906247,9.558850128173827,31.92138671875,12.5732421875,33.02001953125
1781501228.2810535,1.3814543579101561,-3.508702532958984,9.583989245605467,32.89794921875,13.00048828125,34.423828125
1781501228.2850535,1.3275848205566405,-3.456030096435547,9.580397943115234,33.8134765625,13.12255859375,35.7666015625
1781501228.2890534,1.3060370056152344,-3.440467785644531,9.516951599121093,34.66796875,13.85498046875,37.109375
1781501228.2930534,1.303642803955078,-3.423708374023437,9.452308154296874,36.2548828125,14.2822265625,38.330078125
1781501228.2970533,1.2473790649414063,-3.393780853271484,9.434351641845703,37.53662109375,14.34326171875,39.794921875
1781501228.3010533,1.2042834350585936,-3.403357659912109,9.433154541015625,38.818359375,15.0146484375,41.1376953125
1781501228.3050532,1.218648645019531,-3.3782185424804685,9.44871685180664,40.4052734375,14.95361328125,42.236328125
1781501228.3090532,1.1647791076660157,-3.403357659912109,9.445125549316407,41.9921875,15.19775390625,43.3349609375
1781501228.3130531,1.1623849060058593,-3.379415643310547,9.488221179199218,42.90771484375,15.31982421875,44.61669921875
1781501228.317053,1.158793603515625,-3.398569256591797,9.520542901611327,44.37255859375,15.0146484375,45.34912109375
1781501228.321053,1.1647791076660157,-3.417722869873047,9.550470422363281,45.47119140625,14.2822265625,46.20361328125
1781501228.325053,1.1552023010253905,-3.3542765258789062,9.580397943115234,46.630859375,13.85498046875,47.18017578125
1781501228.329053,1.139639990234375,-3.3674446350097655,9.598354455566406,47.42431640625,13.00048828125,48.095703125
1781501228.3330529,1.0869675537109373,-3.385401147460937,9.591171850585937,48.7060546875,12.51220703125,48.583984375
1781501228.3370528,1.035492218017578,-3.403357659912109,9.589974749755859,49.25537109375,12.20703125,48.583984375
1781501228.3410528,0.9828197814941406,-3.391386651611328,9.612719665527344,49.74365234375,12.0849609375,48.40087890625
1781501228.3450527,0.9145850341796874,-3.422511273193359,9.613916766357422,50.4150390625,11.90185546875,48.33984375
1781501228.3490527,0.8882488159179687,-3.398569256591797,9.604339959716796,50.84228515625,11.77978515625,47.9736328125
1781501228.3530526,0.8355763793945312,-3.3865982482910155,9.62109937133789,51.45263671875,12.0849609375,47.2412109375
1781501228.3570526,0.8164227661132812,-3.318363500976562,9.63307037963867,52.24609375,12.0849609375,47.119140625
1781501228.3610525,0.8295908752441405,-3.303998291015625,9.680954412841796,52.79541015625,12.451171875,46.0205078125
1781501228.3650525,0.8176198669433593,-3.3004069885253906,9.76235726928711,53.466796875,12.63427734375,45.59326171875
1781501228.3690524,0.7996633544921875,-3.3303345092773435,9.85094273071289,54.3212890625,12.5732421875,45.166015625
1781501228.3730524,0.7745242370605468,-3.3327287109375,9.8449572265625,55.419921875,13.18359375,44.43359375
1781501228.3770523,0.7697358337402344,-3.391386651611328,9.926360083007811,56.57958984375,13.73291015625,44.12841796875
1781501228.3810523,0.7721300354003906,-3.4428619873046875,10.011354241943359,57.6171875,13.97705078125,43.45703125
1781501228.3850522,0.7302315063476562,-3.4165257690429685,10.066420880126952,58.9599609375,14.46533203125,42.96875
1781501228.3890522,0.70868369140625,-3.362656231689453,10.053252770996092,60.36376953125,13.7939453125,42.724609375
1781501228.393052,0.6727706665039062,-3.2908301818847656,10.064026678466796,62.98828125,13.00048828125,42.29736328125
1781501228.397052,0.6404489440917969,-3.189076611328125,10.083180291748047,65.4296875,12.02392578125,41.9921875
1781501228.401052,0.6069301208496093,-3.1447838806152344,10.146626635742187,67.5048828125,10.8642578125,41.80908203125
1781501228.405052,0.5578489868164063,-3.0909143432617188,10.283096130371094,69.15283203125,8.97216796875,41.32080078125
1781501228.409052,0.5710170959472656,-2.9939491760253905,10.35492218017578,71.533203125,7.62939453125,41.015625
1781501228.4130518,0.5817910034179687,-2.925714428710937,10.432733734130858,73.1201171875,5.859375,40.4052734375
1781501228.4170518,0.5578489868164063,-2.9281086303710935,10.554838018798828,74.70703125,4.08935546875,39.48974609375
1781501228.4210517,0.5398924743652344,-2.798821740722656,10.67454810180664,75.86669921875,1.64794921875,38.818359375
1781501228.4250517,0.49200844116210934,-2.7557261108398436,10.715249530029297,76.84326171875,0.1220703125,38.02490234375
1781501228.4290516,0.39983167724609375,-2.7198130859375,10.759542260742187,77.81982421875,-2.13623046875,36.68212890625
1781501228.4330516,0.3687070556640625,-2.710236279296875,10.806229193115234,78.4912109375,-4.33349609375,34.85107421875
1781501228.4370515,0.3758896606445312,-2.634818927001953,10.844536419677734,79.04052734375,-5.92041015625,33.26416015625
1781501228.4410515,0.3184288208007812,-2.583343591308594,10.800243688964843,79.345703125,-7.87353515625,31.25
1781501228.4450514,0.2549824768066406,-2.521094348144531,10.711658227539061,79.345703125,-9.6435546875,29.11376953125
1781501228.4490514,0.15682020874023436,-2.442085693359375,10.651803186035156,79.28466796875,-11.1083984375,26.9775390625
1781501228.4530513,0.13646949462890623,-2.328361114501953,10.526107598876953,78.9794921875,-12.0849609375,24.658203125
1781501228.4570513,0.12210428466796874,-2.136824981689453,10.364498986816406,78.43017578125,-13.0615234375,22.27783203125
1781501228.4610512,0.12449848632812499,-1.9225439331054686,10.1131078125,77.94189453125,-13.12255859375,19.775390625
1781501228.4650512,0.09935936889648436,-1.7501614135742187,9.999383233642577,76.72119140625,-12.451171875,17.333984375
1781501228.4690511,0.12330138549804687,-1.5921441040039062,9.910797772216796,74.52392578125,-11.23046875,14.404296875
1781501228.473051,0.15682020874023436,-1.4401122985839843,9.85692823486328,72.509765625,-11.1083984375,12.451171875
1781501228.477051,0.17597382202148437,-1.2820949890136717,9.83777462158203,71.044921875,-10.8642578125,10.6201171875
1781501228.481051,0.28730419921875,-1.1827356201171875,9.843760125732421,68.90869140625,-11.1083984375,8.9111328125
1781501228.485051,0.38786066894531246,-1.0570400329589844,9.962273107910155,66.89453125,-12.20703125,7.50732421875
1781501228.4890509,0.4608838195800781,-0.9133879333496093,10.062829577636718,64.51416015625,-13.3056640625,6.591796875
1781501228.4930508,0.5386953735351562,-0.7984662536621093,10.115502014160155,62.01171875,-14.09912109375,5.92041015625
1781501228.4970508,0.6081272216796875,-0.7649474304199219,10.096348400878906,60.302734375,-14.70947265625,5.37109375
1781501228.5010507,0.5793968017578125,-0.7673416320800781,9.931148486328125,58.4716796875,-15.0146484375,4.82177734375
1781501228.5050507,0.6200982299804687,-0.709880792236328,9.815029705810547,57.55615234375,-14.83154296875,4.57763671875
1781501228.5090506,0.6607996582031249,-0.709880792236328,9.643844287109374,56.2744140625,-14.22119140625,4.33349609375
1781501228.5130506,0.6536170532226562,-0.7314286071777343,9.537302313232422,55.23681640625,-13.3056640625,3.90625
1781501228.5170505,0.7386112121582031,-0.7254431030273437,9.435548742675781,54.74853515625,-12.26806640625,4.0283203125
1781501228.5210505,0.7829039428710937,-0.6811503723144531,9.228450299072264,55.23681640625,-11.23046875,4.5166015625
1781501228.5250504,0.8762778076171874,-0.6859387756347656,9.227253198242186,56.640625,-9.94873046875,4.94384765625
1781501228.5290504,1.0139444030761717,-0.7242460021972655,9.337386474609374,57.80029296875,-8.97216796875,5.79833984375
1781501228.5330503,1.1252747802734375,-0.7278373046875,9.642647186279296,57.9833984375,-8.30078125,6.65283203125
1781501228.5370502,1.1767501159667968,-0.719457598876953,9.855731134033203,57.0068359375,-8.48388671875,8.4228515625
1781501228.5410502,1.1516109985351561,-0.6141127258300781,9.93354268798828,56.09130859375,-8.36181640625,9.82666015625
1781501228.5450501,1.092953057861328,-0.5506663818359374,9.929951385498047,55.48095703125,-7.14111328125,10.7421875
1781501228.54905,1.042674822998047,-0.5470750793457031,9.91558617553711,54.13818359375,-5.7373046875,11.8408203125
1781501228.55305,1.0127473022460938,-0.5410895751953124,9.880870251464843,52.6123046875,-4.45556640625,12.8173828125
1781501228.55705,1.0283096130371092,-0.47165772705078124,9.947907897949218,51.025390625,-3.84521484375,14.0380859375
1781501228.56105,1.006761798095703,-0.3136404174804687,9.95389340209961,50.1708984375,-3.173828125,14.83154296875
1781501228.56505,0.9864110839843749,-0.19512743530273435,9.843760125732421,50.72021484375,-3.0517578125,15.44189453125
1781501228.5690498,0.9708487731933593,-0.17956512451171874,9.83777462158203,51.33056640625,-3.41796875,16.17431640625
1781501228.5730498,0.9935936889648437,-0.1975216369628906,9.87608184814453,51.81884765625,-3.47900390625,17.08984375
1781501228.5770497,0.9421183532714843,-0.24181436767578124,9.867702142333984,52.3681640625,-3.35693359375,17.63916015625
1781501228.5810497,0.9169792358398436,-0.2693476867675781,9.83897172241211,52.67333984375,-3.41796875,17.63916015625
1781501228.5850496,0.8798691101074219,-0.2501940734863281,9.834183319091796,52.8564453125,-2.74658203125,17.333984375
1781501228.5890496,0.9026140258789062,-0.229843359375,9.791087689208984,53.16162109375,-2.197265625,17.333984375
1781501228.5930495,0.9169792358398436,-0.258573779296875,9.753977563476562,53.89404296875,-1.89208984375,16.90673828125
1781501228.5970495,0.8978256225585937,-0.33758243408203126,9.765948571777344,53.7109375,-1.28173828125,16.357421875
1781501228.6010494,0.8834604125976562,-0.24061726684570311,9.791087689208984,53.52783203125,-0.91552734375,15.68603515625
1781501228.6050494,0.8583212951660156,-0.18914193115234373,9.81862100830078,52.978515625,-0.8544921875,14.95361328125
1781501228.6090493,0.8726865051269531,-0.1771709228515625,9.847351428222655,52.734375,-0.6103515625,13.97705078125
1781501228.6130493,0.9217676391601562,-0.10773907470703124,9.949104998779296,52.30712890625,0.244140625,13.48876953125
1781501228.6170492,0.9660603698730468,-0.11611878051757812,9.961076007080077,51.94091796875,0.732421875,12.51220703125
1781501228.6210492,0.9911994873046874,-0.12330138549804687,9.967061511230469,51.20849609375,0.79345703125,12.0849609375
1781501228.625049,0.9133879333496093,-0.033518823242187495,9.87727894897461,50.29296875,1.64794921875,11.3525390625
1781501228.629049,0.8056488586425781,0.00239420166015625,9.76116016845703,49.8046875,3.11279296875,10.3759765625
1781501228.633049,0.7565677246093749,0.034715924072265626,9.71686743774414,49.072265625,3.96728515625,9.3994140625
1781501228.637049,0.7661445312499999,0.0718260498046875,9.889249957275391,47.9736328125,4.69970703125,8.48388671875
1781501228.641049,0.7565677246093749,0.1484405029296875,9.973047015380859,46.56982421875,4.638671875,8.23974609375
1781501228.6450489,0.7206546997070312,0.22864625854492185,10.032902056884765,46.2646484375,4.33349609375,8.056640625
1781501228.6490488,0.6775590698242188,0.2549824768066406,10.077194787597655,46.81396484375,4.150390625,8.11767578125
1781501228.6530488,0.6751648681640625,0.1771709228515625,10.256759912109374,47.30224609375,3.35693359375,7.75146484375
1781501228.6570487,0.7218518005371093,0.09337386474609374,10.50216558227539,46.630859375,2.685546875,7.62939453125
1781501228.6610487,0.6847416748046875,0.09217676391601562,10.554838018798828,45.654296875,1.220703125,7.50732421875
1781501228.6650486,0.584185205078125,0.15203180541992187,10.449493145751953,45.5322265625,0.244140625,7.080078125
1781501228.6690485,0.49200844116210934,0.19632453613281248,10.304643945312499,46.142578125,0.30517578125,6.40869140625
1781501228.6730485,0.47165772705078124,0.10175357055664062,10.245986004638672,47.119140625,-0.54931640625,5.37109375
1781501228.6770484,0.5015852478027344,-0.011971008300781249,10.324994659423828,48.15673828125,-1.8310546875,4.45556640625
1781501228.6810484,0.5111620544433594,-0.051475335693359374,10.296264239501953,48.88916015625,-3.35693359375,3.35693359375
1781501228.6850483,0.488417138671875,-0.04548983154296875,10.218452685546874,49.9267578125,-4.33349609375,2.13623046875
1781501228.6890483,0.44053310546874996,-0.028730419921875,10.178948358154296,51.33056640625,-5.31005859375,1.0986328125
1781501228.6930482,0.4465186096191406,-0.02633621826171875,10.17056865234375,52.490234375,-6.2255859375,0.06103515625
1781501228.6970482,0.5518634826660156,0.023942016601562498,10.218452685546874,53.64990234375,-7.568359375,-0.9765625
1781501228.7010481,0.6141127258300781,0.031124621582031248,10.251971508789062,55.2978515625,-8.6669921875,-1.8310546875
1781501228.705048,0.6883329772949218,0.02633621826171875,10.232817895507813,56.33544921875,-10.3759765625,-2.5634765625
1781501228.709048,0.7003039855957031,0.09696516723632811,10.262745416259765,57.06787109375,-11.53564453125,-3.173828125
1781501228.713048,0.6847416748046875,0.14125789794921875,10.217255584716796,57.43408203125,-12.75634765625,-3.7841796875
1781501228.717048,0.6464344482421874,0.2753331909179687,10.056844073486328,57.80029296875,-13.00048828125,-4.82177734375
1781501228.7210479,0.5805939025878906,0.4010287780761719,9.94671079711914,57.861328125,-13.24462890625,-6.16455078125
1781501228.7250478,0.5758054992675781,0.5590460876464843,9.78629928588867,57.7392578125,-13.00048828125,-7.568359375
1781501228.7290478,0.6081272216796875,0.6811503723144531,9.658209497070311,57.6171875,-12.87841796875,-9.09423828125
1781501228.7330477,0.6248866333007812,0.7661445312499999,9.555258825683593,57.0068359375,-12.6953125,-10.31494140625
1781501228.7370477,0.6727706665039062,0.8655039001464844,9.557653027343749,55.7861328125,-11.8408203125,-11.53564453125
1781501228.7410476,0.7218518005371093,0.9648632690429687,9.494206683349608,54.26025390625,-10.68115234375,-12.451171875
1781501228.7450476,0.737414111328125,1.0702081420898437,9.452308154296874,53.1005859375,-9.27734375,-13.24462890625
1781501228.7490475,0.7481880187988281,1.1887211242675781,9.406818322753905,51.57470703125,-7.87353515625,-13.5498046875
1781501228.7530475,0.7601590270996094,1.22583125,9.326612567138671,49.9267578125,-6.77490234375,-14.0380859375
1781501228.7570474,0.7326257080078125,1.2713210815429687,9.249998114013671,47.79052734375,-5.06591796875,-14.09912109375
1781501228.7610474,0.6883329772949218,1.3575123413085937,9.141061938476563,44.98291015625,-3.662109375,-14.46533203125
1781501228.7650473,0.6464344482421874,1.4867992309570313,9.0021982421875,42.724609375,-1.708984375,-14.2822265625
1781501228.7690473,0.5853823059082031,1.5897499023437498,8.87410845336914,40.34423828125,-0.18310546875,-13.85498046875
1781501228.7730472,0.5698199951171875,1.6304513305664061,8.78432589111328,38.2080078125,1.64794921875,-13.18359375
1781501228.7770472,0.5686228942871093,1.715445489501953,8.805873706054687,35.888671875,2.99072265625,-12.39013671875
1781501228.781047,0.5770026000976562,1.7417817077636717,8.804676605224609,33.69140625,3.84521484375,-10.92529296875
1781501228.785047,0.5638344909667968,1.8088193542480469,8.826224420166016,31.1279296875,4.39453125,-9.27734375
1781501228.789047,0.5662286926269531,1.8758570007324218,8.819041815185546,28.564453125,4.7607421875,-7.87353515625
1781501228.793047,0.5123591552734374,1.9225439331054686,8.82383021850586,26.2451171875,5.2490234375,-5.7373046875
1781501228.797047,0.507570751953125,2.043451116943359,8.91840118408203,24.23095703125,5.0048828125,-3.60107421875
1781501228.8010468,0.5099649536132812,2.1128829650878904,9.030928662109375,21.6064453125,5.31005859375,-1.40380859375
1781501228.8050468,0.4560954162597656,2.1643583007812497,9.182960467529297,18.37158203125,4.94384765625,1.03759765625
1781501228.8090467,0.46806642456054687,2.2732944763183593,9.261969122314452,15.869140625,3.96728515625,3.72314453125
1781501228.8130467,0.4369418029785156,2.281674182128906,9.300276348876952,13.61083984375,3.662109375,6.40869140625
1781501228.8170466,0.40581718139648437,2.2290017456054687,9.287108239746093,11.71875,2.99072265625,8.60595703125
1781501228.8210466,0.3363853332519531,2.105700360107422,9.220070593261719,9.94873046875,2.3193359375,11.23046875
1781501228.8250465,0.3124433166503906,2.0254946044921875,9.125499627685546,8.11767578125,1.3427734375,13.36669921875
1781501228.8290465,0.2885013000488281,1.9704279663085937,9.026140258789061,6.34765625,0.6103515625,15.44189453125
1781501228.8330464,0.21428104858398436,1.936909143066406,8.917204083251953,5.31005859375,0.42724609375,17.27294921875
1781501228.8370464,0.1771709228515625,1.8519149841308593,8.82263311767578,4.08935546875,0.244140625,19.1650390625
1781501228.8410463,0.20470424194335937,1.707065783691406,8.542511523437499,0.6103515625,-0.3662109375,20.93505859375
1781501228.8450463,0.14724340209960937,1.7932570434570312,8.693346228027343,0.18310546875,-1.52587890625,22.216796875
1781501228.8490462,0.18315642700195311,1.8507178833007811,8.507795599365235,-1.15966796875,0.06103515625,23.37646484375
1781501228.8530462,0.1580173095703125,1.8758570007324218,8.602366564941406,-3.47900390625,0.18310546875,24.59716796875
1781501228.8570461,0.2262520568847656,1.8842367065429686,8.611943371582031,-5.7373046875,0.30517578125,25.69580078125
1781501228.861046,0.36391865234375,1.8315642700195311,8.722076647949219,-8.056640625,0.06103515625,26.9775390625
1781501228.865046,0.42497079467773435,1.7836802368164062,8.875305554199219,-10.80322265625,-0.67138671875,28.3203125
1781501228.869046,0.5051765502929687,1.6891092712402342,9.035717065429687,-13.18359375,-1.89208984375,29.296875
1781501228.873046,0.5363011718749999,1.6711527587890624,9.125499627685546,-15.7470703125,-2.3193359375,30.21240234375
1781501228.8770459,0.5698199951171875,1.552639776611328,9.151835845947264,-18.24951171875,-2.9296875,31.005859375
1781501228.8810458,0.5793968017578125,1.4867992309570313,9.241618408203124,-20.263671875,-3.84521484375,31.73828125
1781501228.8850458,0.5865794067382812,1.3730746520996093,9.305064752197264,-22.0947265625,-4.57763671875,32.2265625
1781501228.8890457,0.5746083984375,1.284489190673828,9.305064752197264,-23.49853515625,-5.37109375,32.5927734375
1781501228.8930457,0.5458779785156249,1.2078747375488281,9.318232861328125,-24.4140625,-5.7373046875,32.3486328125
1781501228.8970456,0.51714755859375,1.1635820068359375,9.34696328125,-24.658203125,-6.28662109375,32.1044921875
1781501228.9010456,0.565031591796875,1.052251629638672,9.36013139038086,-24.90234375,-7.2021484375,31.73828125
1781501228.9050455,0.6272808349609375,0.9876081848144531,9.414000927734374,-24.96337890625,-8.7890625,31.3720703125
1781501228.9090455,0.6548141540527344,0.9169792358398436,9.423577734375,-25.57373046875,-9.8876953125,30.82275390625
1781501228.9130454,0.7062894897460937,0.939724151611328,9.42956323852539,-26.123046875,-10.80322265625,30.029296875
1781501228.9170454,0.7541735229492187,0.9540893615722655,9.45470235595703,-26.91650390625,-10.7421875,29.35791015625
1781501228.9210453,0.86191259765625,0.9265560424804687,9.459490759277344,-27.89306640625,-10.80322265625,28.25927734375
1781501228.9250453,0.8906430175781249,0.9301473449707031,9.477447271728515,-29.541015625,-10.25390625,27.28271484375
1781501228.9290452,0.853532891845703,0.9445125549316405,9.44871685180664,-30.6396484375,-9.6435546875,26.0009765625
1781501228.9330451,0.853532891845703,0.9038111267089843,9.422380633544922,-32.2265625,-9.46044921875,24.7802734375
1781501228.937045,0.8858546142578124,0.8882488159179687,9.434351641845703,-34.1796875,-9.09423828125,23.62060546875
1781501228.941045,0.8906430175781249,0.8954314208984374,9.507374792480467,-35.7666015625,-9.27734375,22.4609375
1781501228.945045,0.8631096984863281,0.8870517150878906,9.566032733154296,-38.2080078125,-9.09423828125,21.42333984375
1781501228.949045,0.8152256652832031,0.8690952026367187,9.516951599121093,-39.61181640625,-9.1552734375,20.20263671875
1781501228.953045,0.7505822204589844,0.8164227661132812,9.503783489990234,-41.07666015625,-8.7890625,19.22607421875
1781501228.9570448,0.719457598876953,0.8212111694335937,9.392453112792968,-41.93115234375,-8.6669921875,17.822265625
1781501228.9610448,0.6476315490722656,0.7122749938964843,9.290699542236327,-42.3583984375,-8.11767578125,17.08984375
1781501228.9650447,0.6536170532226562,0.6200982299804687,9.25718071899414,-42.48046875,-7.75146484375,16.11328125
1781501228.9690447,0.737414111328125,0.5446808776855468,9.323021264648437,-42.96875,-7.75146484375,15.2587890625
1781501228.9730446,0.8295908752441405,0.4944026428222656,9.53131680908203,-43.51806640625,-7.99560546875,15.2587890625
1781501228.9770446,0.97683427734375,0.4525041137695312,9.80066449584961,-44.25048828125,-8.7890625,14.95361328125
1781501228.9810445,1.1156979736328125,0.4333505004882812,10.036493359375,-44.73876953125,-9.765625,15.2587890625
1781501228.9850445,1.20667763671875,0.34835634155273437,10.150217938232421,-45.10498046875,-11.04736328125,15.625
1781501228.9890444,1.1959037292480468,0.28969840087890625,10.101136804199218,-45.2880859375,-12.02392578125,15.93017578125
1781501228.9930444,1.1875240234375,0.2454056701660156,9.97184991455078,-44.7998046875,-12.5732421875,15.80810546875
1781501228.9970443,1.1623849060058593,0.17597382202148437,9.81862100830078,-44.0673828125,-12.939453125,16.11328125
1781501229.0010443,1.2306196533203124,0.14245499877929688,9.750386260986328,-43.76220703125,-13.3056640625,16.29638671875
1781501229.0050442,1.1959037292480468,0.10893617553710937,9.77432827758789,-43.64013671875,-13.48876953125,16.4794921875
1781501229.0090442,1.1839327209472656,0.1197100830078125,9.832986218261718,-43.64013671875,-13.73291015625,16.54052734375
1781501229.013044,1.180341418457031,0.17477672119140625,9.849745629882811,-43.0908203125,-13.73291015625,16.66259765625
1781501229.017044,1.1575965026855468,0.19512743530273435,9.769539874267577,-42.236328125,-13.73291015625,16.11328125
1781501229.021044,1.139639990234375,0.15203180541992187,9.692925421142577,-41.32080078125,-12.939453125,15.80810546875
1781501229.025044,1.1755530151367186,0.10295067138671875,9.60194575805664,-39.85595703125,-11.962890625,15.13671875
1781501229.029044,1.2114660400390624,0.0,9.519345800781249,-38.87939453125,-10.92529296875,14.892578125
1781501229.0330439,1.2198457458496093,-0.047884033203124995,9.464279162597656,-38.63525390625,-9.765625,14.58740234375
1781501229.0370438,1.218648645019531,-0.076614453125,9.453505255126952,-38.63525390625,-7.9345703125,14.16015625
1781501229.0410438,1.177947216796875,-0.08738836059570312,9.471461767578125,-38.51318359375,-6.591796875,13.61083984375
1781501229.0450437,1.149216796875,-0.10175357055664062,9.516951599121093,-38.9404296875,-5.4931640625,13.427734375
1781501229.0490437,1.1528080993652343,-0.08499415893554688,9.560047229003906,-39.61181640625,-4.2724609375,12.939453125
1781501229.0530436,1.1264718811035155,-0.028730419921875,9.680954412841796,-40.283203125,-3.7841796875,12.939453125
1781501229.0570436,1.1671733093261718,0.016759411621093748,9.891644158935547,-42.05322265625,-3.84521484375,12.8173828125
1781501229.0610435,1.2114660400390624,0.07062894897460938,10.116699114990233,-43.8232421875,-4.39453125,12.75634765625
1781501229.0650434,1.2342109558105467,0.13646949462890623,10.283096130371094,-46.142578125,-5.31005859375,13.00048828125
1781501229.0690434,1.209071838378906,0.12569558715820311,10.330980163574218,-47.8515625,-6.2255859375,12.939453125
1781501229.0730433,1.2054805358886718,0.13646949462890623,10.28549033203125,-49.37744140625,-6.89697265625,13.3056640625
1781501229.0770433,1.1731588134765625,0.12449848632812499,10.187328063964843,-50.4150390625,-7.38525390625,13.12255859375
1781501229.0810432,1.1324573852539062,0.051475335693359374,10.011354241943359,-51.1474609375,-7.26318359375,12.939453125
1781501229.0850432,1.1336544860839843,-0.009576806640625,9.889249957275391,-51.7578125,-7.38525390625,12.451171875
1781501229.0890431,1.13006318359375,-0.08738836059570312,9.8449572265625,-51.8798828125,-7.26318359375,11.90185546875
1781501229.093043,1.1623849060058593,-0.17477672119140625,9.83178911743164,-52.30712890625,-6.77490234375,11.71875
1781501229.097043,1.1923124267578125,-0.3016694091796875,9.764751470947266,-52.06298828125,-6.77490234375,11.1083984375
1781501229.101043,1.216254443359375,-0.29089550170898437,9.759963067626952,-51.3916015625,-6.53076171875,10.43701171875
1781501229.105043,1.2713210815429687,-0.4129997863769531,9.753977563476562,-50.23193359375,-5.67626953125,10.07080078125
1781501229.109043,1.3168109130859373,-0.5291185668945312,9.69771382446289,-49.1943359375,-5.2490234375,9.27734375
1781501229.1130428,1.3383587280273437,-0.6404489440917969,9.643844287109374,-48.03466796875,-4.7607421875,8.48388671875
1781501229.1170428,1.3838485595703125,-0.7110778930664062,9.586383447265625,-47.607421875,-3.7841796875,7.99560546875
1781501229.1210427,1.37906015625,-0.7984662536621093,9.533711010742186,-47.30224609375,-2.3193359375,6.9580078125
1781501229.1250427,1.3838485595703125,-0.8786720092773437,9.516951599121093,-47.119140625,-0.79345703125,6.103515625
1781501229.1290426,1.4161702819824218,-0.852335791015625,9.530119708251952,-46.7529296875,0.6103515625,5.37109375
1781501229.1330426,1.3874398620605468,-0.8391676818847655,9.48702407836914,-46.38671875,2.197265625,4.82177734375
1781501229.1370425,1.3778630554199218,-0.8511386901855468,9.476250170898437,-45.34912109375,3.41796875,3.84521484375
1781501229.1410425,1.3766659545898436,-0.8152256652832031,9.524134204101562,-44.37255859375,4.21142578125,3.35693359375
1781501229.1450424,1.3479355346679687,-0.8451531860351562,9.592368951416015,-43.8232421875,4.45556640625,2.86865234375
1781501229.1490424,1.3239935180664062,-0.8547299926757812,9.706093530273437,-43.9453125,3.96728515625,2.25830078125
1781501229.1530423,1.2952630981445312,-0.8403647827148437,9.807847100830077,-43.8232421875,4.0283203125,1.8310546875
1781501229.1570423,1.3180080139160155,-0.8571241943359375,10.001777435302733,-44.73876953125,3.2958984375,1.64794921875
1781501229.1610422,1.3072341064453123,-0.9038111267089843,10.265139617919921,-45.47119140625,2.25830078125,1.28173828125
1781501229.1650422,1.2222399475097656,-0.9217676391601562,10.43871923828125,-46.56982421875,0.79345703125,1.03759765625
1781501229.169042,1.1228805786132812,-0.8559270935058593,10.612298858642578,-48.40087890625,-1.40380859375,0.1220703125
1781501229.173042,1.0654197387695312,-0.7960720520019531,10.569203228759765,-48.7060546875,-3.96728515625,-0.18310546875
1781501229.177042,1.0019733947753906,-0.8068459594726562,10.447098944091795,-48.88916015625,-6.8359375,-0.79345703125
1781501229.181042,0.9265560424804687,-0.8259995727539062,10.453084448242187,-49.9267578125,-9.8876953125,-1.5869140625
1781501229.185042,0.8643067993164062,-0.8092401611328125,10.441113439941406,-51.1474609375,-12.39013671875,-2.5634765625
1781501229.1890419,0.8283937744140625,-0.7601590270996094,10.293870037841796,-52.1240234375,-15.56396484375,-3.35693359375
1781501229.1930418,0.8355763793945312,-0.679953271484375,10.226832391357421,-53.03955078125,-17.9443359375,-4.7607421875
1781501229.1970417,0.8702923034667969,-0.5865794067382812,10.199299072265624,-54.01611328125,-20.01953125,-5.4931640625
1781501229.2010417,0.9540893615722655,-0.5698199951171875,10.083180291748047,-54.19921875,-22.5830078125,-6.34765625
1781501229.2050416,1.0307038146972656,-0.6153098266601562,9.922768780517577,-54.26025390625,-24.10888671875,-7.26318359375
1781501229.2090416,1.1073182678222655,-0.7062894897460937,9.787496386718749,-54.62646484375,-23.86474609375,-8.23974609375
1781501229.2130415,1.1959037292480468,-0.8259995727539062,9.560047229003906,-55.23681640625,-23.0712890625,-9.33837890625
1781501229.2170415,1.3120225097656248,-0.9576806640625,9.327809667968749,-55.419921875,-21.97265625,-10.43701171875
1781501229.2210414,1.456871710205078,-1.0271125122070313,9.252392315673827,-56.0302734375,-19.8974609375,-11.53564453125
1781501229.2250414,1.5107412475585937,-1.0977414611816405,9.3086560546875,-57.67822265625,-17.578125,-12.0849609375
1781501229.2290413,1.5861585998535155,-1.2330138549804688,9.337386474609374,-59.326171875,-15.93017578125,-12.3291015625
1781501229.2330413,1.6412252380371093,-1.2761094848632812,9.437942944335937,-61.21826171875,-13.85498046875,-12.939453125
1781501229.2370412,1.6340426330566404,-1.2713210815429687,9.567229833984374,-62.98828125,-10.92529296875,-13.61083984375
1781501229.2410412,1.6448165405273436,-1.313219610595703,9.599551556396484,-64.39208984375,-8.60595703125,-13.85498046875
1781501229.2450411,1.6579846496582031,-1.3156138122558594,9.714473236083984,-65.85693359375,-6.65283203125,-14.22119140625
1781501229.249041,1.637633935546875,-1.3000515014648437,9.803058697509766,-67.44384765625,-4.638671875,-14.404296875
1781501229.253041,1.6148890197753905,-1.3778630554199218,9.80665,-68.54248046875,-2.9296875,-14.7705078125
1781501229.257041,1.6316484313964843,-1.4796166259765624,9.81263550415039,-69.64111328125,-2.50244140625,-15.19775390625
1781501229.261041,1.5705962890624998,-1.5418658691406248,9.890447058105469,-71.1669921875,-1.64794921875,-15.380859375
1781501229.2650409,1.4820108276367188,-1.5957354064941405,9.949104998779296,-72.32666015625,-0.42724609375,-15.625
1781501229.2690408,1.467645617675781,-1.7214309936523438,9.943119494628906,-73.05908203125,-0.48828125,-16.11328125
1781501229.2730408,1.4532804077148436,-1.7561469177246092,10.05564697265625,-75.3173828125,-0.1220703125,-16.6015625
1781501229.2770407,1.361103643798828,-1.7369933044433592,10.066420880126952,-77.69775390625,-0.732421875,-17.4560546875
1781501229.2810407,1.3072341064453123,-1.6256629272460936,9.815029705810547,-77.7587890625,-1.953125,-18.06640625
1781501229.2850406,1.2006921325683593,-1.5861585998535155,9.667786303710937,-77.63671875,-2.38037109375,-18.798828125
1781501229.2890406,1.199495031738281,-1.6412252380371093,9.702502227783203,-78.857421875,-2.38037109375,-19.6533203125
1781501229.2930405,1.2318167541503906,-1.7860744384765623,9.552864624023437,-80.4443359375,-3.60107421875,-20.20263671875
1781501229.2970405,1.2222399475097656,-1.7908628417968748,9.362525592041015,-81.48193359375,-4.150390625,-21.17919921875
1781501229.3010404,1.1456254943847655,-1.7561469177246092,9.299079248046874,-82.94677734375,-3.72314453125,-22.03369140625
1781501229.3050404,1.1348515869140625,-1.8447323791503905,9.337386474609374,-83.92333984375,-3.60107421875,-22.39990234375
1781501229.3090403,1.2078747375488281,-1.9788076721191405,9.422380633544922,-85.02197265625,-5.4931640625,-22.8271484375
1781501229.3130403,1.197100830078125,-1.9812018737792967,9.573215338134766,-85.87646484375,-6.34765625,-23.0712890625
1781501229.3170402,1.2234370483398436,-1.993172882080078,9.661800799560547,-85.8154296875,-7.080078125,-22.94921875
1781501229.3210402,1.3024457031249999,-2.139219183349609,9.627084875488281,-85.3271484375,-8.6669921875,-22.64404296875
1781501229.32504,1.3634978454589843,-2.194285821533203,9.583989245605467,-84.53369140625,-10.25390625,-22.216796875
1781501229.32904,1.3299790222167969,-2.251746661376953,9.522937103271484,-83.740234375,-10.43701171875,-21.54541015625
1781501229.33304,1.3395558288574219,-2.43250888671875,9.329006768798827,-82.09228515625,-10.986328125,-20.81298828125
1781501229.33704,1.4161702819824218,-2.6479870361328124,9.185354669189453,-79.65087890625,-11.16943359375,-20.1416015625
1781501229.34104,1.4437036010742186,-2.7904420349121093,9.235632904052734,-78.4912109375,-11.1083984375,-19.34814453125
1781501229.3450398,1.5227122558593749,-2.940079638671875,9.24520971069336,-77.08740234375,-10.80322265625,-18.5546875
1781501229.3490398,1.5921441040039062,-3.1124621582031247,9.138667736816405,-74.8291015625,-11.16943359375,-17.578125
1781501229.3530397,1.6220716247558593,-3.1471780822753903,9.14225903930664,-72.509765625,-10.92529296875,-16.66259765625
1781501229.3570397,1.5682020874023437,-3.189076611328125,9.09198080444336,-69.88525390625,-10.009765625,-15.68603515625
1781501229.3610396,1.6268600280761718,-3.3016040893554686,8.997409838867187,-66.650390625,-9.70458984375,-14.95361328125
1781501229.3650396,1.6508020446777343,-3.421314172363281,8.959102612304687,-63.5986328125,-8.9111328125,-14.0380859375
1781501229.3690395,1.6699556579589843,-3.5386300537109374,9.003395343017578,-61.03515625,-7.50732421875,-13.36669921875
1781501229.3730395,1.6519991455078125,-3.6475662292480466,8.90643017578125,-57.7392578125,-6.2255859375,-12.5732421875
1781501229.3770394,1.6555904479980468,-3.7517140014648436,8.846575134277343,-54.87060546875,-4.8828125,-11.8408203125
1781501229.3810394,1.6472107421875,-3.7481226989746093,8.851363537597656,-51.8798828125,-2.38037109375,-11.29150390625
1781501229.3850393,1.6998831787109374,-3.7517140014648436,8.82981572265625,-48.4619140625,-0.42724609375,-10.8642578125
1781501229.3890393,1.7465701110839842,-3.834313958740234,8.795099798583983,-44.86083984375,0.9765625,-10.7421875
1781501229.3930392,1.7776947326660155,-3.8893805969238278,8.86812294921875,-41.8701171875,2.38037109375,-10.31494140625
1781501229.3970392,1.7429788085937499,-3.8845921936035155,9.060856182861327,-39.36767578125,4.45556640625,-10.009765625
1781501229.4010391,1.7202338928222656,-3.909731311035156,9.178172064208983,-36.376953125,5.37109375,-9.521484375
1781501229.405039,1.6807295654296874,-3.8857892944335934,9.278728533935546,-33.14208984375,5.859375,-9.033203125
1781501229.409039,1.6268600280761718,-3.797203833007812,9.39125601196289,-29.9072265625,7.62939453125,-8.97216796875
1781501229.413039,1.6615759521484375,-3.7912183288574215,9.382876306152344,-26.91650390625,9.27734375,-8.23974609375
1781501229.417039,1.7178396911621092,-3.851073370361328,9.306261853027344,-23.98681640625,9.82666015625,-7.26318359375
1781501229.4210389,1.7022773803710936,-3.8043864379882812,9.23802710571289,-21.05712890625,10.8642578125,-6.591796875
1781501229.4250388,1.7034744812011717,-3.7888241271972656,9.202114080810546,-18.37158203125,11.90185546875,-5.67626953125
1781501229.4290388,1.753752716064453,-3.84987626953125,9.187748870849608,-15.93017578125,12.26806640625,-4.5166015625
1781501229.4330387,1.7836802368164062,-3.816357446289062,9.19971987915039,-13.85498046875,12.5732421875,-3.5400390625
1781501229.4370387,1.7585411193847655,-3.7505169006347656,9.242815509033203,-12.20703125,13.12255859375,-1.89208984375
1781501229.4410386,1.7764976318359373,-3.6727053466796873,9.261969122314452,-10.3759765625,14.2822265625,-0.732421875
1781501229.4450386,1.7681179260253905,-3.6367923217773437,9.294290844726563,-9.27734375,14.5263671875,0.3662109375
1781501229.4490385,1.7082628845214842,-3.5410242553710933,9.373299499511718,-8.544921875,15.0146484375,1.64794921875
1781501229.4530385,1.6903063720703124,-3.497928625488281,9.436745843505859,-7.75146484375,15.7470703125,2.86865234375
1781501229.4570384,1.7034744812011717,-3.5146880371093747,9.42956323852539,-7.01904296875,16.17431640625,3.662109375
1781501229.4610384,1.6639701538085936,-3.506308331298828,9.452308154296874,-6.65283203125,16.357421875,4.57763671875
1781501229.4650383,1.6136919189453125,-3.4440590881347655,9.48702407836914,-6.7138671875,17.2119140625,5.4931640625
1781501229.4690382,1.5490484741210937,-3.456030096435547,9.437942944335937,-6.8359375,17.51708984375,6.04248046875
1781501229.4730382,1.4999673400878906,-3.4428619873046875,9.424774835205078,-6.591796875,17.76123046875,6.7138671875
1781501229.4770381,1.4317325927734375,-3.366247534179687,9.441534246826171,-6.9580078125,18.06640625,7.01904296875
1781501229.481038,1.4161702819824218,-3.3638533325195312,9.434351641845703,-6.65283203125,17.39501953125,7.14111328125
1781501229.485038,1.341950030517578,-3.393780853271484,9.504980590820312,-6.65283203125,16.845703125,7.26318359375
1781501229.489038,1.2773065856933592,-3.4680011047363277,9.56363853149414,-6.77490234375,15.7470703125,7.2021484375
1781501229.493038,1.2222399475097656,-3.475183709716797,9.689334118652344,-7.50732421875,15.2587890625,7.4462890625
1781501229.497038,1.1911153259277343,-3.499125726318359,9.628281976318359,-8.544921875,13.97705078125,7.14111328125
1781501229.5010378,1.1372457885742187,-3.430890979003906,9.627084875488281,-9.6435546875,13.3056640625,7.01904296875
1781501229.5050378,1.1145008728027344,-3.393780853271484,9.555258825683593,-10.80322265625,13.18359375,6.591796875
1781501229.5090377,1.0809820495605469,-3.3674446350097655,9.520542901611327,-11.29150390625,12.75634765625,6.16455078125
1781501229.5130377,1.1552023010253905,-3.333925811767578,9.539696514892578,-12.451171875,11.65771484375,5.9814453125
1781501229.5170376,1.1384428894042968,-3.3004069885253906,9.564835632324218,-13.7939453125,10.6201171875,5.9814453125
1781501229.5210376,1.180341418457031,-3.2632968627929686,9.570821136474608,-15.0146484375,10.07080078125,5.79833984375
1781501229.5250375,1.1743559143066407,-3.2932243835449215,9.513360296630859,-16.41845703125,8.9111328125,5.55419921875
1781501229.5290375,1.159990704345703,-3.2788591735839843,9.507374792480467,-17.88330078125,7.6904296875,5.37109375
1781501229.5330374,1.1635820068359375,-3.2417490478515623,9.543287817382812,-19.775390625,7.8125,5.06591796875
1781501229.5370374,1.1755530151367186,-3.23696064453125,9.452308154296874,-21.8505859375,8.1787109375,4.94384765625
1781501229.5410373,1.1959037292480468,-3.2345664428710936,9.319429962158203,-23.86474609375,9.033203125,4.7607421875
1781501229.5450373,1.2497732666015624,-3.24294614868164,9.230844500732422,-26.3671875,10.3759765625,4.57763671875
1781501229.5490372,1.2988544006347655,-3.2824504760742186,9.184157568359375,-28.4423828125,11.8408203125,4.5166015625
1781501229.5530372,1.3563152404785155,-3.3291374084472656,9.185354669189453,-30.517578125,12.6953125,4.150390625
1781501229.557037,1.4221557861328125,-3.353079425048828,9.202114080810546,-32.958984375,13.12255859375,4.33349609375
1781501229.561037,1.4532804077148436,-3.3195606018066406,9.214085089111327,-35.58349609375,14.16015625,4.7607421875
1781501229.565037,1.4508862060546874,-3.3877953491210935,9.10993731689453,-38.39111328125,15.19775390625,4.57763671875
1781501229.569037,1.4245499877929686,-3.374627239990234,9.044096771240234,-41.3818359375,16.845703125,4.57763671875
1781501229.573037,1.3910311645507811,-3.361459130859375,8.933963494873046,-44.5556640625,19.47021484375,4.7607421875
1781501229.5770369,1.389834063720703,-3.3387142150878906,8.85495484008789,-47.119140625,22.216796875,5.0048828125
1781501229.5810368,1.456871710205078,-3.3123779968261715,8.786720092773438,-49.8046875,24.4140625,5.06591796875
1781501229.5850368,1.5227122558593749,-3.2980127868652342,8.828618621826172,-52.8564453125,26.9775390625,5.7373046875
1781501229.5890367,1.5562310791015623,-3.287238879394531,8.801085302734375,-56.0302734375,28.80859375,6.4697265625
1781501229.5930367,1.5945383056640625,-3.286041778564453,8.836998327636719,-58.837890625,30.76171875,7.9345703125
1781501229.5970366,1.5586252807617187,-3.2453403503417966,8.828618621826172,-62.1337890625,32.40966796875,8.97216796875
1781501229.6010365,1.5227122558593749,-3.1699229980468746,8.826224420166016,-65.0634765625,34.11865234375,10.55908203125
1781501229.6050365,1.456871710205078,-3.1376012756347653,8.804676605224609,-67.7490234375,35.7666015625,12.14599609375
1781501229.6090364,1.3754688537597655,-3.0837317382812497,8.807070806884765,-70.1904296875,37.4755859375,14.16015625
1781501229.6130364,1.3838485595703125,-3.057395520019531,8.86213744506836,-72.021484375,38.75732421875,16.17431640625
1781501229.6170363,1.3263877197265623,-3.0621839233398433,8.833407025146483,-73.05908203125,39.55078125,18.1884765625
1781501229.6210363,1.2785036865234374,-3.1172505615234374,8.82383021850586,-73.3642578125,40.58837890625,20.32470703125
1781501229.6250362,1.2078747375488281,-3.247734552001953,8.708908538818358,-73.73046875,41.748046875,22.4609375
1781501229.6290362,1.1982979309082031,-3.417722869873047,8.687360723876953,-73.79150390625,41.80908203125,24.59716796875
1781501229.6330361,1.1623849060058593,-3.6284126159667967,8.662221606445312,-73.54736328125,42.3583984375,26.4892578125
1781501229.637036,1.0869675537109373,-3.801992236328125,8.634688287353516,-73.1201171875,41.9921875,28.076171875
1781501229.641036,1.0295067138671874,-3.9636008483886718,8.610746270751953,-71.71630859375,42.1142578125,29.72412109375
1781501229.645036,0.9947907897949219,-4.1563340820312495,8.546102825927735,-70.00732421875,41.07666015625,31.18896484375
1781501229.649036,0.9409212524414062,-4.341884710693359,8.597578161621094,-68.2373046875,39.73388671875,32.470703125
1781501229.6530359,0.8786720092773437,-4.508281726074219,8.604760766601562,-66.0400390625,38.39111328125,33.8134765625
1781501229.6570358,0.7829039428710937,-4.69263525390625,8.585607153320312,-64.02587890625,36.31591796875,34.36279296875
1781501229.6610358,0.7230489013671875,-4.838681555175781,8.59997236328125,-61.1572265625,34.3017578125,34.912109375
1781501229.6650357,0.6332663391113281,-4.978742352294922,8.602366564941406,-58.41064453125,32.71484375,35.2783203125
1781501229.6690357,0.5626373901367188,-5.118803149414062,8.59997236328125,-55.60302734375,30.94482421875,35.09521484375
1781501229.6730356,0.5087678527832031,-5.270834954833984,8.649053497314453,-53.40576171875,29.052734375,34.60693359375
1781501229.6770356,0.47644613037109373,-5.418078356933593,8.63109698486328,-50.84228515625,27.587890625,34.3017578125
1781501229.6810355,0.38307226562499996,-5.505466717529297,8.63827958984375,-48.27880859375,26.18408203125,33.38623046875
1781501229.6850355,0.28730419921875,-5.674257934570313,8.678981018066406,-44.921875,23.62060546875,31.6162109375
1781501229.6890354,0.2645592834472656,-5.687426043701172,8.681375219726561,-43.51806640625,21.97265625,30.57861328125
1781501229.6930354,0.17836802368164062,-5.671863732910156,8.722076647949219,-42.78564453125,20.751953125,29.72412109375
1781501229.6970353,0.1149216796875,-5.632359405517578,8.780734588623046,-41.8701171875,19.34814453125,28.25927734375
1781501229.7010353,0.04908113403320312,-5.579686968994141,8.87410845336914,-40.8935546875,17.7001953125,27.28271484375
1781501229.7050352,-0.001197100830078125,-5.459976885986328,9.026140258789061,-39.4287109375,15.2587890625,25.93994140625
1781501229.7090352,-0.05386953735351562,-5.442020373535156,9.076418493652342,-38.75732421875,12.26806640625,24.658203125
1781501229.713035,-0.15682020874023436,-5.4887073059082025,9.09198080444336,-37.841796875,9.3994140625,23.4375
1781501229.717035,-0.23582886352539062,-5.443217474365234,9.017760552978515,-37.29248046875,7.32421875,21.54541015625
1781501229.721035,-0.32920272827148434,-5.408501550292969,8.872911352539061,-36.80419921875,5.67626953125,19.8974609375
1781501229.725035,-0.38666356811523434,-5.398924743652343,8.756792572021483,-36.07177734375,3.90625,17.822265625
1781501229.729035,-0.45010991210937495,-5.341463903808593,8.664615808105468,-35.70556640625,2.5634765625,15.869140625
1781501229.7330348,-0.40581718139648437,-5.361814617919921,8.641870892333984,-35.0341796875,1.15966796875,13.61083984375
1781501229.7370348,-0.39145197143554683,-5.363011718749999,8.635885388183594,-34.72900390625,-0.79345703125,11.65771484375
1781501229.7410347,-0.3890577697753906,-5.33068999633789,8.639476690673828,-34.3017578125,-2.99072265625,9.765625
1781501229.7450347,-0.34715924072265625,-5.340266802978515,8.633491186523438,-34.1796875,-4.8828125,8.36181640625
1781501229.7490346,-0.3268085266113281,-5.372588525390625,8.568847741699217,-34.5458984375,-6.7138671875,6.53076171875
1781501229.7530346,-0.29568390502929687,-5.351040710449219,8.49821879272461,-34.66796875,-7.9345703125,5.06591796875
1781501229.7570345,-0.29448680419921874,-5.329492895507812,8.441955053710936,-35.15625,-8.6669921875,3.41796875
1781501229.7610345,-0.24061726684570311,-5.310339282226562,8.412027532958984,-35.5224609375,-9.3994140625,2.685546875
1781501229.7650344,-0.16639701538085935,-5.3199160888671875,8.427589843749999,-36.43798828125,-9.8876953125,1.52587890625
1781501229.7690344,-0.11252747802734374,-5.363011718749999,8.487444885253906,-37.59765625,-10.986328125,1.28173828125
1781501229.7730343,-0.0143652099609375,-5.358223315429687,8.52335791015625,-38.39111328125,-12.26806640625,1.52587890625
1781501229.7770343,0.027533319091796873,-5.324704492187499,8.52934341430664,-38.75732421875,-13.97705078125,1.89208984375
1781501229.7810342,0.017956512451171875,-5.260061047363281,8.543708624267577,-39.1845703125,-15.31982421875,2.38037109375
1781501229.7850342,0.04189852905273437,-5.212177014160156,8.461108666992187,-39.0625,-16.41845703125,3.173828125
1781501229.7890341,0.0909796630859375,-5.1882349975585935,8.367734802246094,-38.818359375,-17.51708984375,4.39453125
1781501229.793034,0.11611878051757812,-5.239710333251953,8.305485559082031,-38.63525390625,-18.49365234375,5.67626953125
1781501229.797034,0.13287819213867186,-5.309142181396484,8.267178332519531,-38.14697265625,-19.22607421875,7.01904296875
1781501229.801034,0.1975216369628906,-5.414487054443359,8.2743609375,-37.17041015625,-20.5078125,8.23974609375
1781501229.805034,0.2454056701660156,-5.4899044067382805,8.270769635009765,-36.19384765625,-21.66748046875,9.765625
1781501229.8090339,0.2765302917480469,-5.513846423339843,8.208520391845703,-35.15625,-23.37646484375,11.65771484375
1781501229.8130338,0.25737667846679685,-5.588066674804687,8.15345375366211,-33.87451171875,-24.84130859375,13.0615234375
1781501229.8170338,0.258573779296875,-5.6574985229492185,8.103175518798828,-32.40966796875,-26.18408203125,14.09912109375
1781501229.8210337,0.28730419921875,-5.725733270263672,8.03134946899414,-30.8837890625,-27.16064453125,15.625
1781501229.8250337,0.239420166015625,-5.815515832519531,7.997830645751953,-29.35791015625,-27.83203125,16.05224609375
1781501229.8290336,0.22505495605468748,-5.88614478149414,7.933187200927734,-28.1982421875,-27.83203125,16.54052734375
1781501229.8330336,0.22266075439453123,-5.942408520507812,7.885303167724609,-27.099609375,-28.6865234375,17.27294921875
1781501229.8370335,0.22385785522460935,-5.983109948730468,7.864952453613281,-26.0009765625,-29.23583984375,17.27294921875
1781501229.8410335,0.24181436767578124,-5.967547637939453,7.830236529541015,-25.57373046875,-29.84619140625,17.51708984375
1781501229.8450334,0.3315969299316406,-5.925649108886718,7.75721337890625,-22.705078125,-30.33447265625,18.24951171875
1781501229.8490334,0.3495534423828125,-5.851428857421874,7.726088757324218,-25.20751953125,-31.18896484375,17.9443359375
1781501229.8530333,0.3280056274414062,-5.7700260009765625,7.7608046813964835,-24.35302734375,-32.2265625,18.24951171875
1781501229.8570333,0.22505495605468748,-5.643133312988281,7.734468463134765,-25.7568359375,-31.494140625,18.85986328125
1781501229.8610332,0.24899697265624998,-5.708973858642578,7.880514764404296,-27.40478515625,-33.38623046875,18.6767578125
1781501229.8650331,0.4477157104492187,-5.498284112548828,7.790732202148437,-27.83203125,-34.48486328125,19.4091796875
1781501229.869033,0.40222587890625,-5.406107348632812,7.843404638671874,-30.029296875,-34.423828125,19.95849609375
1781501229.873033,0.4560954162597656,-5.383362432861328,7.898471276855468,-30.6396484375,-35.21728515625,20.32470703125
1781501229.877033,0.49679684448242184,-5.385756634521484,7.888894470214844,-32.53173828125,-35.7666015625,21.17919921875
1781501229.881033,0.47884033203125,-5.455188482666015,8.005013250732421,-33.8134765625,-35.46142578125,22.03369140625
1781501229.885033,0.4955997436523437,-5.5078609191894525,7.990648040771484,-35.46142578125,-35.888671875,22.39990234375
1781501229.8890328,0.5973533142089843,-5.626373901367187,8.034940771484374,-36.7431640625,-36.56005859375,22.8271484375
1781501229.8930328,0.6967126831054687,-5.720944866943359,8.012195855712891,-37.9638671875,-37.17041015625,23.193359375
1781501229.8970327,0.7003039855957031,-5.856217260742187,7.978677032470703,-38.4521484375,-37.2314453125,23.13232421875
1781501229.9010327,0.7422025146484375,-5.9974751586914055,7.8900915710449215,-38.63525390625,-37.9638671875,23.13232421875
1781501229.9050326,0.7805097412109374,-6.131550451660156,7.830236529541015,-39.00146484375,-37.65869140625,23.0712890625
1781501229.9090326,0.7841010437011718,-6.259640240478515,7.8529814453124995,-39.12353515625,-37.353515625,22.88818359375
1781501229.9130325,0.8080430603027343,-6.380547424316406,7.772775689697265,-38.4521484375,-37.41455078125,22.39990234375
1781501229.9170325,0.8379705810546875,-6.477512591552734,7.765593084716796,-37.29248046875,-37.29248046875,21.484375
1781501229.9210324,0.8259995727539062,-6.506243011474609,7.721300354003906,-36.0107421875,-36.62109375,20.6298828125
1781501229.9250324,0.8212111694335937,-6.591237170410156,7.651868505859374,-34.36279296875,-35.94970703125,19.59228515625
1781501229.9290323,0.8583212951660156,-6.621164691162109,7.588422161865234,-33.203125,-36.07177734375,18.12744140625
1781501229.9330323,0.8643067993164062,-6.639121203613281,7.6087728759765625,-31.92138671875,-35.46142578125,16.78466796875
1781501229.9370322,0.8918401184082031,-6.6271501953125,7.674613421630859,-30.94482421875,-35.15625,15.19775390625
1781501229.9410322,0.8930372192382812,-6.602011077880859,7.736862664794922,-30.57861328125,-35.58349609375,13.36669921875
1781501229.9450321,0.9205705383300781,-6.616376287841796,7.8362220336914055,-30.09033203125,-35.5224609375,11.53564453125
1781501229.949032,0.9445125549316405,-6.5397618347167965,7.91642778930664,-30.33447265625,-35.0341796875,9.94873046875
1781501229.953032,0.9911994873046874,-6.490680700683593,7.896077075195312,-30.2734375,-35.0341796875,8.11767578125
1781501229.957032,1.0283096130371092,-6.453570574951171,7.89727417602539,-30.57861328125,-35.0341796875,6.591796875
1781501229.961032,1.0402806213378906,-6.463147381591797,7.903259680175781,-31.1279296875,-34.423828125,4.94384765625
1781501229.9650319,1.1061211669921875,-6.53138212890625,7.885303167724609,-31.79931640625,-34.0576171875,3.60107421875
1781501229.9690318,1.13006318359375,-6.587645867919922,7.876923461914062,-32.470703125,-33.99658203125,2.0751953125
1781501229.9730318,1.1982979309082031,-6.685808135986328,7.905653881835937,-32.77587890625,-33.447265625,1.220703125
1781501229.9770317,1.284489190673828,-6.691793640136718,7.887697369384765,-32.77587890625,-32.77587890625,0.3662109375
1781501229.9810317,1.3587094421386718,-6.762422589111328,7.826645227050781,-32.53173828125,-32.53173828125,-0.1220703125
1781501229.9850316,1.3922282653808593,-6.817489227294922,7.714117749023437,-31.55517578125,-31.6162109375,-0.42724609375
1781501229.9890316,1.4041992736816404,-6.829460235595703,7.50821640625,-30.3955078125,-29.9072265625,-1.0986328125
1781501229.9930315,1.4006079711914061,-6.907271789550781,7.4040686340332025,-29.296875,-27.52685546875,-1.46484375
1781501229.9970315,1.438915197753906,-6.9707181335449215,7.3861121215820305,-27.7099609375,-25.390625,-1.953125
1781501230.0010314,1.4317325927734375,-7.013813763427734,7.408857037353515,-27.03857421875,-23.4375,-2.50244140625
1781501230.0050313,1.484405029296875,-6.986280444335937,7.436390356445312,-25.69580078125,-21.78955078125,-2.62451171875
1781501230.0090313,1.4628572143554686,-6.900089184570312,7.431601953125,-24.5361328125,-20.08056640625,-2.86865234375
1781501230.0130312,1.4413093994140624,-6.846219647216796,7.413645440673828,-23.37646484375,-18.9208984375,-3.11279296875
1781501230.0170312,1.35990654296875,-6.719326959228515,7.3549875,-22.705078125,-18.00537109375,-3.35693359375
1781501230.0210311,1.2904746948242187,-6.593631372070312,7.2723875427246085,-22.03369140625,-16.4794921875,-3.60107421875
1781501230.025031,1.1695675109863282,-6.424840155029297,7.214926702880859,-22.3388671875,-15.56396484375,-3.96728515625
1781501230.029031,1.0558429321289062,-6.256048937988281,7.184999182128906,-22.76611328125,-14.16015625,-3.90625
1781501230.033031,1.0031704956054688,-6.030993981933594,7.162254266357421,-24.47509765625,-12.5732421875,-3.7841796875
1781501230.037031,0.9445125549316405,-5.8083332275390624,7.192181787109375,-25.634765625,-11.23046875,-3.41796875
1781501230.041031,0.8870517150878906,-5.5832782714843745,7.181407879638671,-27.34375,-10.19287109375,-3.173828125
1781501230.0450308,0.8678981018066406,-5.437231970214843,7.302315063476562,-29.296875,-10.009765625,-1.64794921875
1781501230.0490308,0.8894459167480468,-5.443217474365234,7.426813549804687,-31.79931640625,-10.25390625,-0.1220703125
1781501230.0530307,0.9876081848144531,-5.503072515869141,7.619546783447265,-34.1796875,-10.68115234375,1.40380859375
1781501230.0570307,1.0235212097167967,-5.632359405517578,7.711723547363281,-36.68212890625,-11.65771484375,3.11279296875
1781501230.0610306,1.0534487304687499,-5.802347723388672,7.663839514160156,-37.4755859375,-12.939453125,4.82177734375
1781501230.0650306,1.0366893188476562,-6.040570788574218,7.5165961120605465,-37.841796875,-14.0380859375,5.9814453125
1781501230.0690305,1.025915411376953,-6.296750366210937,7.311891870117187,-37.29248046875,-14.404296875,6.89697265625
1781501230.0730305,0.97683427734375,-6.523002423095702,7.0652890991210935,-36.56005859375,-14.16015625,7.01904296875
1781501230.0770304,0.9373299499511718,-6.663063220214843,6.884526873779296,-34.7900390625,-14.09912109375,6.591796875
1781501230.0810304,0.939724151611328,-6.789955908203124,6.78636460571289,-33.203125,-13.18359375,5.67626953125
1781501230.0850303,0.9624690673828125,-6.872555865478515,6.797138513183594,-32.16552734375,-12.5732421875,4.7607421875
1781501230.0890303,1.0115502014160156,-6.922834100341796,6.83783994140625,-30.94482421875,-12.51220703125,3.2958984375
1781501230.0930302,0.9959878906249999,-6.868964562988281,6.898892083740234,-30.45654296875,-12.14599609375,2.01416015625
1781501230.0970302,0.97683427734375,-6.8210805297851556,6.95874712524414,-29.72412109375,-12.02392578125,0.67138671875
